{"resourceType":"Bundle","type":"searchset","entry":[{"resource":{"billablePeriod":{"end":"2016-06-15T08:12:23-04:00","start":"2016-06-15T07:57:23-04:00"},"id":"872e5937-ee5a-499a-b713-274a328a958b","item":[{"encounter":[{"reference":"Encounter/8e01fdb7-6a37-4214-b94a-2e3930f287a4"}],"sequence":1}],"meta":{"lastUpdated":"2019-04-09T12:03:34.450350+00:00","versionId":"MTU1NDgxMTQxNDQ1MDM1MDAwMA"},"organization":{"reference":"Organization/3c1a6594-2deb-4ff5-972a-a209361ec3eb"},"patient":{"reference":"Patient/0accf4d2-156a-425c-8400-33c073a0f661"},"resourceType":"Claim","status":"active","total":{"code":"USD","system":"urn:iso:std:iso:4217","value":125},"use":"complete"}},{"resource":{"billablePeriod":{"end":"2011-06-08T08:12:23-04:00","start":"2011-06-08T07:57:23-04:00"},"id":"87bac181-16b9-40b3-a510-89eeff6ff31f","item":[{"encounter":[{"reference":"Encounter/d2b2a75a-b0fe-45fb-bf04-5d6c9a54dd38"}],"sequence":1}],"meta":{"lastUpdated":"2019-04-09T12:03:28.271861+00:00","versionId":"MTU1NDgxMTQwODI3MTg2MTAwMA"},"organization":{"reference":"Organization/057e5b30-6566-4cff-80cc-1e899ab80bae"},"patient":{"reference":"Patient/0accf4d2-156a-425c-8400-33c073a0f661"},"resourceType":"Claim","status":"active","total":{"code":"USD","system":"urn:iso:std:iso:4217","value":125},"use":"complete"}},{"resource":{"billablePeriod":{"end":"2014-08-20T08:12:23-04:00","start":"2014-08-20T07:57:23-04:00"},"id":"882dab6c-5673-4540-87e5-0c7f0e412fee","item":[{"encounter":[{"reference":"Encounter/dd36d000-5a14-4c69-87d3-04b087ba099e"}],"sequence":1}],"meta":{"lastUpdated":"2019-04-09T12:03:32.364537+00:00","versionId":"MTU1NDgxMTQxMjM2NDUzNzAwMA"},"organization":{"reference":"Organization/3c1a6594-2deb-4ff5-972a-a209361ec3eb"},"patient":{"reference":"Patient/0accf4d2-156a-425c-8400-33c073a0f661"},"resourceType":"Claim","status":"active","total":{"code":"USD","system":"urn:iso:std:iso:4217","value":125},"use":"complete"}},{"resource":{"billablePeriod":{"end":"2011-12-07T07:12:23-05:00","start":"2011-12-07T06:57:23-05:00"},"id":"898b9315-314a-4715-9807-1972f2d005ab","information":[{"category":{"coding":[{"code":"info","system":"http://hl7.org/fhir/claiminformationcategory"}]},"sequence":1,"valueReference":{"reference":"Immunization/880c9223-f934-4c75-aa92-a0fb94631f7c"}}],"item":[{"encounter":[{"reference":"Encounter/ee3aa1cf-23bd-4b5d-97c1-4072b885a338"}],"sequence":1},{"informationLinkId":[1],"net":{"code":"USD","system":"urn:iso:std:iso:4217","value":140.52},"sequence":2}],"meta":{"lastUpdated":"2019-04-09T12:03:28.280773+00:00","versionId":"MTU1NDgxMTQwODI4MDc3MzAwMA"},"organization":{"reference":"Organization/3c1a6594-2deb-4ff5-972a-a209361ec3eb"},"patient":{"reference":"Patient/0accf4d2-156a-425c-8400-33c073a0f661"},"resourceType":"Claim","status":"active","total":{"code":"USD","system":"urn:iso:std:iso:4217","value":265.52},"use":"complete"}},{"resource":{"billablePeriod":{"end":"2012-10-03T08:12:23-04:00","start":"2012-10-03T07:57:23-04:00"},"id":"8b45497a-456a-4fd0-ac53-2a27b5786575","item":[{"encounter":[{"reference":"Encounter/ab643349-14ef-4e2f-92ea-f9e2ec1972c0"}],"sequence":1}],"meta":{"lastUpdated":"2019-04-09T12:03:29.353356+00:00","versionId":"MTU1NDgxMTQwOTM1MzM1NjAwMA"},"organization":{"reference":"Organization/057e5b30-6566-4cff-80cc-1e899ab80bae"},"patient":{"reference":"Patient/0accf4d2-156a-425c-8400-33c073a0f661"},"resourceType":"Claim","status":"active","total":{"code":"USD","system":"urn:iso:std:iso:4217","value":125},"use":"complete"}},{"resource":{"billablePeriod":{"end":"2017-04-05T08:12:23-04:00","start":"2017-04-05T07:57:23-04:00"},"id":"9046a545-7460-42b9-9a84-c8e7615fc605","item":[{"encounter":[{"reference":"Encounter/0147215b-7200-494b-8546-6fbbae2ffa36"}],"sequence":1}],"meta":{"lastUpdated":"2019-04-09T12:03:35.495620+00:00","versionId":"MTU1NDgxMTQxNTQ5NTYyMDAwMA"},"organization":{"reference":"Organization/057e5b30-6566-4cff-80cc-1e899ab80bae"},"patient":{"reference":"Patient/0accf4d2-156a-425c-8400-33c073a0f661"},"resourceType":"Claim","status":"active","total":{"code":"USD","system":"urn:iso:std:iso:4217","value":125},"use":"complete"}},{"resource":{"billablePeriod":{"end":"2012-06-06T08:27:23-04:00","start":"2012-06-06T07:57:23-04:00"},"id":"91782e24-f7cb-4b28-a4f4-f78594b19352","item":[{"encounter":[{"reference":"Encounter/983cf644-a232-47e1-baa4-44f58152d4d3"}],"sequence":1},{"net":{"code":"USD","system":"urn:iso:std:iso:4217","value":829.66},"procedureLinkId":[1],"sequence":2,"service":{"coding":[{"code":"428191000124101","system":"http://snomed.info/sct","version":"v1"}]}}],"meta":{"lastUpdated":"2019-04-09T12:03:29.360826+00:00","versionId":"MTU1NDgxMTQwOTM2MDgyNjAwMA"},"organization":{"reference":"Organization/3c1a6594-2deb-4ff5-972a-a209361ec3eb"},"patient":{"reference":"Patient/0accf4d2-156a-425c-8400-33c073a0f661"},"procedure":[{"procedureReference":{"reference":"Procedure/b16d254f-3b10-400c-bb06-1465f4fbb82e"},"sequence":1}],"resourceType":"Claim","status":"active","total":{"code":"USD","system":"urn:iso:std:iso:4217","value":954.66},"use":"complete"}},{"resource":{"billablePeriod":{"end":"1991-07-24T08:12:23-04:00","start":"1991-07-24T07:57:23-04:00"},"id":"920af21e-6a00-49b2-8fc2-515a811d57f2","item":[{"encounter":[{"reference":"Encounter/a40b9b1c-62fc-40a3-8fe5-d3027e95acde"}],"sequence":1}],"meta":{"lastUpdated":"2019-04-09T12:03:26.170696+00:00","versionId":"MTU1NDgxMTQwNjE3MDY5NjAwMA"},"organization":{"reference":"Organization/3c1a6594-2deb-4ff5-972a-a209361ec3eb"},"patient":{"reference":"Patient/0accf4d2-156a-425c-8400-33c073a0f661"},"prescription":{"reference":"MedicationRequest/7e0a9738-b279-4acb-a92d-c44ea6da022a"},"resourceType":"Claim","status":"active","total":{"code":"USD","system":"urn:iso:std:iso:4217","value":255},"use":"complete"}},{"resource":{"billablePeriod":{"end":"2012-02-01T07:12:23-05:00","start":"2012-02-01T06:57:23-05:00"},"id":"9243df45-094c-4d4e-9258-71fb4e5c3e81","item":[{"encounter":[{"reference":"Encounter/23df6fcc-4cb0-41ad-8ee5-dc9f35e8f02a"}],"sequence":1}],"meta":{"lastUpdated":"2019-04-09T12:03:28.298602+00:00","versionId":"MTU1NDgxMTQwODI5ODYwMjAwMA"},"organization":{"reference":"Organization/3c1a6594-2deb-4ff5-972a-a209361ec3eb"},"patient":{"reference":"Patient/0accf4d2-156a-425c-8400-33c073a0f661"},"resourceType":"Claim","status":"active","total":{"code":"USD","system":"urn:iso:std:iso:4217","value":125},"use":"complete"}},{"resource":{"billablePeriod":{"end":"2009-05-20T08:12:23-04:00","start":"2009-05-20T07:57:23-04:00"},"id":"9582b521-79e6-4107-984f-0358cc0c4fe3","item":[{"encounter":[{"reference":"Encounter/b74547b8-e7e4-45fe-9f5c-496caddd1a7a"}],"sequence":1}],"meta":{"lastUpdated":"2019-04-09T12:03:26.169994+00:00","versionId":"MTU1NDgxMTQwNjE2OTk5NDAwMA"},"organization":{"reference":"Organization/057e5b30-6566-4cff-80cc-1e899ab80bae"},"patient":{"reference":"Patient/0accf4d2-156a-425c-8400-33c073a0f661"},"resourceType":"Claim","status":"active","total":{"code":"USD","system":"urn:iso:std:iso:4217","value":125},"use":"complete"}},{"resource":{"billablePeriod":{"end":"2017-01-18T07:27:23-05:00","start":"2017-01-18T06:57:23-05:00"},"id":"96f47d53-4425-4bb1-84eb-5525bf9b6c13","item":[{"encounter":[{"reference":"Encounter/4329fd2d-4269-4520-b0aa-e30ec954cb43"}],"sequence":1},{"net":{"code":"USD","system":"urn:iso:std:iso:4217","value":464.29},"procedureLinkId":[1],"sequence":2,"service":{"coding":[{"code":"428191000124101","system":"http://snomed.info/sct","version":"v1"}]}}],"meta":{"lastUpdated":"2019-04-09T12:03:35.484944+00:00","versionId":"MTU1NDgxMTQxNTQ4NDk0NDAwMA"},"organization":{"reference":"Organization/3c1a6594-2deb-4ff5-972a-a209361ec3eb"},"patient":{"reference":"Patient/0accf4d2-156a-425c-8400-33c073a0f661"},"procedure":[{"procedureReference":{"reference":"Procedure/9a48754a-1b2d-4ae4-8982-b13b08bc73ef"},"sequence":1}],"resourceType":"Claim","status":"active","total":{"code":"USD","system":"urn:iso:std:iso:4217","value":589.29},"use":"complete"}},{"resource":{"billablePeriod":{"end":"2015-02-25T07:12:23-05:00","start":"2015-02-25T06:57:23-05:00"},"id":"9af26efb-60f3-41b6-821e-f7244a06016a","item":[{"encounter":[{"reference":"Encounter/c871699c-6149-4fff-b0e3-59e3c5ec87b0"}],"sequence":1}],"meta":{"lastUpdated":"2019-04-09T12:03:33.414954+00:00","versionId":"MTU1NDgxMTQxMzQxNDk1NDAwMA"},"organization":{"reference":"Organization/3c1a6594-2deb-4ff5-972a-a209361ec3eb"},"patient":{"reference":"Patient/0accf4d2-156a-425c-8400-33c073a0f661"},"resourceType":"Claim","status":"active","total":{"code":"USD","system":"urn:iso:std:iso:4217","value":125},"use":"complete"}},{"resource":{"billablePeriod":{"end":"2016-05-18T08:27:23-04:00","start":"2016-05-18T07:57:23-04:00"},"id":"9af9df53-c547-41e0-8cfa-b5ce17614d9c","item":[{"encounter":[{"reference":"Encounter/e5110187-2347-412c-ac6d-75283ba352d1"}],"sequence":1},{"net":{"code":"USD","system":"urn:iso:std:iso:4217","value":613.05},"procedureLinkId":[1],"sequence":2,"service":{"coding":[{"code":"428191000124101","system":"http://snomed.info/sct","version":"v1"}]}}],"meta":{"lastUpdated":"2019-04-09T12:03:34.449069+00:00","versionId":"MTU1NDgxMTQxNDQ0OTA2OTAwMA"},"organization":{"reference":"Organization/3c1a6594-2deb-4ff5-972a-a209361ec3eb"},"patient":{"reference":"Patient/0accf4d2-156a-425c-8400-33c073a0f661"},"procedure":[{"procedureReference":{"reference":"Procedure/a448bf86-a6d1-49a9-8b79-38fa5af9846a"},"sequence":1}],"resourceType":"Claim","status":"active","total":{"code":"USD","system":"urn:iso:std:iso:4217","value":738.05},"use":"complete"}},{"resource":{"billablePeriod":{"end":"2013-05-01T08:12:23-04:00","start":"2013-05-01T07:57:23-04:00"},"id":"9b420d1c-66ff-47ea-b898-e675f3b49f4f","item":[{"encounter":[{"reference":"Encounter/aa121434-f27f-43c7-9ed4-e2be172b229b"}],"sequence":1}],"meta":{"lastUpdated":"2019-04-09T12:03:30.337582+00:00","versionId":"MTU1NDgxMTQxMDMzNzU4MjAwMA"},"organization":{"reference":"Organization/057e5b30-6566-4cff-80cc-1e899ab80bae"},"patient":{"reference":"Patient/0accf4d2-156a-425c-8400-33c073a0f661"},"resourceType":"Claim","status":"active","total":{"code":"USD","system":"urn:iso:std:iso:4217","value":125},"use":"complete"}},{"resource":{"billablePeriod":{"end":"2009-11-18T07:12:23-05:00","start":"2009-11-18T06:57:23-05:00"},"id":"9bd3e81b-edbe-43be-959f-12e70b6cc934","information":[{"category":{"coding":[{"code":"info","system":"http://hl7.org/fhir/claiminformationcategory"}]},"sequence":1,"valueReference":{"reference":"Immunization/00634129-807b-4f5f-ad29-f9e9686b41a3"}}],"item":[{"encounter":[{"reference":"Encounter/12731c13-407e-4044-9890-ee8f09033e3b"}],"sequence":1},{"informationLinkId":[1],"net":{"code":"USD","system":"urn:iso:std:iso:4217","value":140.52},"sequence":2}],"meta":{"lastUpdated":"2019-04-09T12:03:27.224511+00:00","versionId":"MTU1NDgxMTQwNzIyNDUxMTAwMA"},"organization":{"reference":"Organization/3c1a6594-2deb-4ff5-972a-a209361ec3eb"},"patient":{"reference":"Patient/0accf4d2-156a-425c-8400-33c073a0f661"},"resourceType":"Claim","status":"active","total":{"code":"USD","system":"urn:iso:std:iso:4217","value":265.52},"use":"complete"}},{"resource":{"billablePeriod":{"end":"2009-02-18T07:12:23-05:00","start":"2009-02-18T06:57:23-05:00"},"id":"9f233d4e-bc20-433a-bab5-52a17205c640","item":[{"encounter":[{"reference":"Encounter/28de273b-98b7-4d52-9901-24d46eed4a08"}],"sequence":1}],"meta":{"lastUpdated":"2019-04-09T12:03:26.162727+00:00","versionId":"MTU1NDgxMTQwNjE2MjcyNzAwMA"},"organization":{"reference":"Organization/3c1a6594-2deb-4ff5-972a-a209361ec3eb"},"patient":{"reference":"Patient/0accf4d2-156a-425c-8400-33c073a0f661"},"resourceType":"Claim","status":"active","total":{"code":"USD","system":"urn:iso:std:iso:4217","value":125},"use":"complete"}},{"resource":{"billablePeriod":{"end":"2014-09-24T08:12:23-04:00","start":"2014-09-24T07:57:23-04:00"},"id":"a23bf99a-8224-44ad-b853-cb087ef201b2","item":[{"encounter":[{"reference":"Encounter/456f147f-12ef-4c34-90ee-43f83dcbddea"}],"sequence":1}],"meta":{"lastUpdated":"2019-04-09T12:03:32.369841+00:00","versionId":"MTU1NDgxMTQxMjM2OTg0MTAwMA"},"organization":{"reference":"Organization/057e5b30-6566-4cff-80cc-1e899ab80bae"},"patient":{"reference":"Patient/0accf4d2-156a-425c-8400-33c073a0f661"},"resourceType":"Claim","status":"active","total":{"code":"USD","system":"urn:iso:std:iso:4217","value":125},"use":"complete"}},{"resource":{"billablePeriod":{"end":"2016-12-07T07:27:23-05:00","start":"2016-12-07T06:57:23-05:00"},"id":"a42f7219-971c-4807-8138-d913874f8207","information":[{"category":{"coding":[{"code":"info","system":"http://hl7.org/fhir/claiminformationcategory"}]},"sequence":1,"valueReference":{"reference":"Immunization/636ec40e-bc67-448f-be46-d77872e94527"}}],"item":[{"encounter":[{"reference":"Encounter/6ef8598d-dcc2-4fed-8d35-f406fda5cd57"}],"sequence":1},{"informationLinkId":[1],"net":{"code":"USD","system":"urn:iso:std:iso:4217","value":140.52},"sequence":2},{"net":{"code":"USD","system":"urn:iso:std:iso:4217","value":351.02},"procedureLinkId":[1],"sequence":3,"service":{"coding":[{"code":"428191000124101","system":"http://snomed.info/sct","version":"v1"}]}}],"meta":{"lastUpdated":"2019-04-09T12:03:35.473353+00:00","versionId":"MTU1NDgxMTQxNTQ3MzM1MzAwMA"},"organization":{"reference":"Organization/3c1a6594-2deb-4ff5-972a-a209361ec3eb"},"patient":{"reference":"Patient/0accf4d2-156a-425c-8400-33c073a0f661"},"procedure":[{"procedureReference":{"reference":"Procedure/e204b2ae-da7c-468d-ba72-67bf470f605b"},"sequence":1}],"resourceType":"Claim","status":"active","total":{"code":"USD","system":"urn:iso:std:iso:4217","value":616.54},"use":"complete"}},{"resource":{"billablePeriod":{"end":"2011-04-13T08:12:23-04:00","start":"2011-04-13T07:57:23-04:00"},"id":"a551873f-7477-4ca3-b412-835d3dcfca41","item":[{"encounter":[{"reference":"Encounter/72d07237-0902-4ad8-99b1-025aa15e4d43"}],"sequence":1}],"meta":{"lastUpdated":"2019-04-09T12:03:27.244851+00:00","versionId":"MTU1NDgxMTQwNzI0NDg1MTAwMA"},"organization":{"reference":"Organization/057e5b30-6566-4cff-80cc-1e899ab80bae"},"patient":{"reference":"Patient/0accf4d2-156a-425c-8400-33c073a0f661"},"resourceType":"Claim","status":"active","total":{"code":"USD","system":"urn:iso:std:iso:4217","value":125},"use":"complete"}},{"resource":{"billablePeriod":{"end":"2012-04-04T08:12:23-04:00","start":"2012-04-04T07:57:23-04:00"},"id":"a85e988b-62f1-4520-9fc4-37612ac5d6b5","item":[{"encounter":[{"reference":"Encounter/eeee67b1-97ba-43db-8e17-7692c550f416"}],"sequence":1}],"meta":{"lastUpdated":"2019-04-09T12:03:29.313964+00:00","versionId":"MTU1NDgxMTQwOTMxMzk2NDAwMA"},"organization":{"reference":"Organization/3c1a6594-2deb-4ff5-972a-a209361ec3eb"},"patient":{"reference":"Patient/0accf4d2-156a-425c-8400-33c073a0f661"},"resourceType":"Claim","status":"active","total":{"code":"USD","system":"urn:iso:std:iso:4217","value":125},"use":"complete"}},{"resource":{"billablePeriod":{"end":"2015-06-17T08:12:23-04:00","start":"2015-06-17T07:57:23-04:00"},"id":"a91d0994-3303-4473-86b4-cf1b630e836b","item":[{"encounter":[{"reference":"Encounter/675b200a-7079-454d-a757-ea834c792681"}],"sequence":1}],"meta":{"lastUpdated":"2019-04-09T12:03:33.409278+00:00","versionId":"MTU1NDgxMTQxMzQwOTI3ODAwMA"},"organization":{"reference":"Organization/057e5b30-6566-4cff-80cc-1e899ab80bae"},"patient":{"reference":"Patient/0accf4d2-156a-425c-8400-33c073a0f661"},"resourceType":"Claim","status":"active","total":{"code":"USD","system":"urn:iso:std:iso:4217","value":125},"use":"complete"}},{"resource":{"billablePeriod":{"end":"2016-01-13T07:12:23-05:00","start":"2016-01-13T06:57:23-05:00"},"id":"a9f5b434-8f9b-43fc-a5dd-d6fefa3b5346","item":[{"encounter":[{"reference":"Encounter/f86841dd-d9be-4b93-a4dd-0886f482c74d"}],"sequence":1}],"meta":{"lastUpdated":"2019-04-09T12:03:33.411635+00:00","versionId":"MTU1NDgxMTQxMzQxMTYzNTAwMA"},"organization":{"reference":"Organization/057e5b30-6566-4cff-80cc-1e899ab80bae"},"patient":{"reference":"Patient/0accf4d2-156a-425c-8400-33c073a0f661"},"resourceType":"Claim","status":"active","total":{"code":"USD","system":"urn:iso:std:iso:4217","value":125},"use":"complete"}},{"resource":{"billablePeriod":{"end":"2014-11-19T07:12:23-05:00","start":"2014-11-19T06:57:23-05:00"},"id":"aa711164-4fa9-4a2e-b152-adf7d3a27f03","information":[{"category":{"coding":[{"code":"info","system":"http://hl7.org/fhir/claiminformationcategory"}]},"sequence":1,"valueReference":{"reference":"Immunization/74a99e10-7628-4b62-aa96-d4b25caccc80"}},{"category":{"coding":[{"code":"info","system":"http://hl7.org/fhir/claiminformationcategory"}]},"sequence":2,"valueReference":{"reference":"Immunization/e99d2d15-0744-4b9e-97d0-83bbe6c1f7ef"}}],"item":[{"encounter":[{"reference":"Encounter/62764d69-1b97-4d25-8e10-15060e9c1af7"}],"sequence":1},{"informationLinkId":[1],"net":{"code":"USD","system":"urn:iso:std:iso:4217","value":140.52},"sequence":2},{"informationLinkId":[2],"net":{"code":"USD","system":"urn:iso:std:iso:4217","value":140.52},"sequence":3}],"meta":{"lastUpdated":"2019-04-09T12:03:32.371764+00:00","versionId":"MTU1NDgxMTQxMjM3MTc2NDAwMA"},"organization":{"reference":"Organization/057e5b30-6566-4cff-80cc-1e899ab80bae"},"patient":{"reference":"Patient/0accf4d2-156a-425c-8400-33c073a0f661"},"resourceType":"Claim","status":"active","total":{"code":"USD","system":"urn:iso:std:iso:4217","value":406.04},"use":"complete"}},{"resource":{"billablePeriod":{"end":"2017-08-09T08:12:23-04:00","start":"2017-08-09T07:57:23-04:00"},"id":"ab64ffe9-33a1-45ea-abe2-dcedb5236d49","item":[{"encounter":[{"reference":"Encounter/e382b59e-0128-468b-be66-3d25673150d5"}],"sequence":1}],"meta":{"lastUpdated":"2019-04-09T12:03:36.487026+00:00","versionId":"MTU1NDgxMTQxNjQ4NzAyNjAwMA"},"organization":{"reference":"Organization/057e5b30-6566-4cff-80cc-1e899ab80bae"},"patient":{"reference":"Patient/0accf4d2-156a-425c-8400-33c073a0f661"},"resourceType":"Claim","status":"active","total":{"code":"USD","system":"urn:iso:std:iso:4217","value":125},"use":"complete"}},{"resource":{"billablePeriod":{"end":"2015-07-15T08:12:23-04:00","start":"2015-07-15T07:57:23-04:00"},"id":"aee30dce-b23f-4e9c-8613-ddfa2975fcf4","item":[{"encounter":[{"reference":"Encounter/e7f47e1e-b826-460c-bb1c-bd55f4635d59"}],"sequence":1}],"meta":{"lastUpdated":"2019-04-09T12:03:33.408252+00:00","versionId":"MTU1NDgxMTQxMzQwODI1MjAwMA"},"organization":{"reference":"Organization/057e5b30-6566-4cff-80cc-1e899ab80bae"},"patient":{"reference":"Patient/0accf4d2-156a-425c-8400-33c073a0f661"},"resourceType":"Claim","status":"active","total":{"code":"USD","system":"urn:iso:std:iso:4217","value":125},"use":"complete"}},{"resource":{"billablePeriod":{"end":"2014-05-07T08:51:23-04:00","start":"2014-05-07T07:57:23-04:00"},"id":"b00d92c5-5238-4301-b1d7-1b440cdcf9d1","item":[{"encounter":[{"reference":"Encounter/42ff7c1f-c355-47ae-b891-e75757808b76"}],"sequence":1},{"net":{"code":"USD","system":"urn:iso:std:iso:4217","value":14648.33},"procedureLinkId":[1],"sequence":2,"service":{"coding":[{"code":"73761001","system":"http://snomed.info/sct","version":"v1"}]}}],"meta":{"lastUpdated":"2019-04-09T12:03:32.364094+00:00","versionId":"MTU1NDgxMTQxMjM2NDA5NDAwMA"},"organization":{"reference":"Organization/3c1a6594-2deb-4ff5-972a-a209361ec3eb"},"patient":{"reference":"Patient/0accf4d2-156a-425c-8400-33c073a0f661"},"procedure":[{"procedureReference":{"reference":"Procedure/b3dd8b3b-3751-42c6-bae2-a16284612591"},"sequence":1}],"resourceType":"Claim","status":"active","total":{"code":"USD","system":"urn:iso:std:iso:4217","value":14773.33},"use":"complete"}},{"resource":{"billablePeriod":{"end":"2011-08-17T08:12:23-04:00","start":"2011-08-17T07:57:23-04:00"},"id":"b15d49b8-8402-4064-af7a-1098f7bc5971","item":[{"encounter":[{"reference":"Encounter/4d32d622-72e7-4bc2-822c-ad1e3a23009e"}],"sequence":1}],"meta":{"lastUpdated":"2019-04-09T12:03:28.283546+00:00","versionId":"MTU1NDgxMTQwODI4MzU0NjAwMA"},"organization":{"reference":"Organization/3c1a6594-2deb-4ff5-972a-a209361ec3eb"},"patient":{"reference":"Patient/0accf4d2-156a-425c-8400-33c073a0f661"},"resourceType":"Claim","status":"active","total":{"code":"USD","system":"urn:iso:std:iso:4217","value":125},"use":"complete"}},{"resource":{"billablePeriod":{"end":"1988-05-10T08:12:23-04:00","start":"1988-05-10T07:57:23-04:00"},"id":"b1ee1ba6-feca-496c-8040-9b52cf70a006","item":[{"encounter":[{"reference":"Encounter/cc495b5d-fe0c-4374-88c7-52e1fea427a3"}],"sequence":1}],"meta":{"lastUpdated":"2019-04-09T12:03:26.164561+00:00","versionId":"MTU1NDgxMTQwNjE2NDU2MTAwMA"},"organization":{"reference":"Organization/3c1a6594-2deb-4ff5-972a-a209361ec3eb"},"patient":{"reference":"Patient/0accf4d2-156a-425c-8400-33c073a0f661"},"prescription":{"reference":"MedicationRequest/a9259aab-aba4-43d2-849b-df0f6720aa63"},"resourceType":"Claim","status":"active","total":{"code":"USD","system":"urn:iso:std:iso:4217","value":255},"use":"complete"}},{"resource":{"billablePeriod":{"end":"2018-05-02T08:12:23-04:00","start":"2018-05-02T07:57:23-04:00"},"id":"b4f628b2-d2e2-43ac-aa59-004e78992142","item":[{"encounter":[{"reference":"Encounter/f191230e-7384-4f1b-ba01-d83def128e31"}],"sequence":1}],"meta":{"lastUpdated":"2019-04-09T12:03:36.503411+00:00","versionId":"MTU1NDgxMTQxNjUwMzQxMTAwMA"},"organization":{"reference":"Organization/057e5b30-6566-4cff-80cc-1e899ab80bae"},"patient":{"reference":"Patient/0accf4d2-156a-425c-8400-33c073a0f661"},"resourceType":"Claim","status":"active","total":{"code":"USD","system":"urn:iso:std:iso:4217","value":125},"use":"complete"}},{"resource":{"billablePeriod":{"end":"2012-08-29T08:12:23-04:00","start":"2012-08-29T07:57:23-04:00"},"id":"b66b2230-102f-4d10-a485-baf4f092c3b9","item":[{"encounter":[{"reference":"Encounter/c7f341ff-b544-4a41-ac27-38dd36d17410"}],"sequence":1}],"meta":{"lastUpdated":"2019-04-09T12:03:29.360824+00:00","versionId":"MTU1NDgxMTQwOTM2MDgyNDAwMA"},"organization":{"reference":"Organization/3c1a6594-2deb-4ff5-972a-a209361ec3eb"},"patient":{"reference":"Patient/0accf4d2-156a-425c-8400-33c073a0f661"},"resourceType":"Claim","status":"active","total":{"code":"USD","system":"urn:iso:std:iso:4217","value":125},"use":"complete"}},{"resource":{"billablePeriod":{"end":"2014-10-29T08:27:23-04:00","start":"2014-10-29T07:57:23-04:00"},"id":"b7fbd008-67d0-4d02-9e0b-c3d9ecb36691","item":[{"encounter":[{"reference":"Encounter/13b2fe86-debb-487d-ae69-c2b020f80f2c"}],"sequence":1},{"net":{"code":"USD","system":"urn:iso:std:iso:4217","value":442.82},"procedureLinkId":[1],"sequence":2,"service":{"coding":[{"code":"428191000124101","system":"http://snomed.info/sct","version":"v1"}]}}],"meta":{"lastUpdated":"2019-04-09T12:03:32.374738+00:00","versionId":"MTU1NDgxMTQxMjM3NDczODAwMA"},"organization":{"reference":"Organization/3c1a6594-2deb-4ff5-972a-a209361ec3eb"},"patient":{"reference":"Patient/0accf4d2-156a-425c-8400-33c073a0f661"},"procedure":[{"procedureReference":{"reference":"Procedure/45361aba-04f4-4f90-a1d4-21845319504c"},"sequence":1}],"resourceType":"Claim","status":"active","total":{"code":"USD","system":"urn:iso:std:iso:4217","value":567.82},"use":"complete"}},{"resource":{"billablePeriod":{"end":"2013-11-15T08:13:23-05:00","start":"2013-11-15T06:57:23-05:00"},"diagnosis":[{"diagnosisReference":{"reference":"Condition/ee6028fe-8994-4948-89f6-2d5ffc5b70ab"},"sequence":1}],"id":"ba11a5a1-1907-4429-ab2b-3771636dee85","item":[{"encounter":[{"reference":"Encounter/4171df32-40e3-465b-ab54-34f2596b5f95"}],"sequence":1},{"diagnosisLinkId":[1],"sequence":2},{"net":{"code":"USD","system":"urn:iso:std:iso:4217","value":7807.53},"procedureLinkId":[1],"sequence":3,"service":{"coding":[{"code":"288086009","system":"http://snomed.info/sct","version":"v1"}]}}],"meta":{"lastUpdated":"2019-04-09T12:03:31.367839+00:00","versionId":"MTU1NDgxMTQxMTM2NzgzOTAwMA"},"organization":{"reference":"Organization/3c1a6594-2deb-4ff5-972a-a209361ec3eb"},"patient":{"reference":"Patient/0accf4d2-156a-425c-8400-33c073a0f661"},"procedure":[{"procedureReference":{"reference":"Procedure/ee773936-c00b-44db-8837-f56149df1f86"},"sequence":1}],"resourceType":"Claim","status":"active","total":{"code":"USD","system":"urn:iso:std:iso:4217","value":7932.53},"use":"complete"}},{"resource":{"billablePeriod":{"end":"2015-09-16T08:12:23-04:00","start":"2015-09-16T07:57:23-04:00"},"id":"ba719de7-3f85-48ab-8c4f-1947319c0f46","item":[{"encounter":[{"reference":"Encounter/9a9c6421-dabf-41e7-8693-1f6b7741eb88"}],"sequence":1}],"meta":{"lastUpdated":"2019-04-09T12:03:33.397998+00:00","versionId":"MTU1NDgxMTQxMzM5Nzk5ODAwMA"},"organization":{"reference":"Organization/057e5b30-6566-4cff-80cc-1e899ab80bae"},"patient":{"reference":"Patient/0accf4d2-156a-425c-8400-33c073a0f661"},"resourceType":"Claim","status":"active","total":{"code":"USD","system":"urn:iso:std:iso:4217","value":125},"use":"complete"}},{"resource":{"billablePeriod":{"end":"2018-05-09T08:12:23-04:00","start":"2018-05-09T07:57:23-04:00"},"id":"bc3a492b-2694-4540-a3d1-bfe0593e7519","item":[{"encounter":[{"reference":"Encounter/32d12e55-3005-4130-8639-37db5030ebc6"}],"sequence":1}],"meta":{"lastUpdated":"2019-04-09T12:03:36.518151+00:00","versionId":"MTU1NDgxMTQxNjUxODE1MTAwMA"},"organization":{"reference":"Organization/3c1a6594-2deb-4ff5-972a-a209361ec3eb"},"patient":{"reference":"Patient/0accf4d2-156a-425c-8400-33c073a0f661"},"resourceType":"Claim","status":"active","total":{"code":"USD","system":"urn:iso:std:iso:4217","value":125},"use":"complete"}},{"resource":{"billablePeriod":{"end":"2009-04-21T08:34:23-04:00","start":"2009-04-21T07:57:23-04:00"},"id":"c1ac7056-c176-4a90-b1d4-ee00d750183d","item":[{"encounter":[{"reference":"Encounter/ad8b29e1-4612-4680-84a5-da3cebce6886"}],"sequence":1}],"meta":{"lastUpdated":"2019-04-09T12:03:26.169997+00:00","versionId":"MTU1NDgxMTQwNjE2OTk5NzAwMA"},"organization":{"reference":"Organization/3c1a6594-2deb-4ff5-972a-a209361ec3eb"},"patient":{"reference":"Patient/0accf4d2-156a-425c-8400-33c073a0f661"},"prescription":{"reference":"MedicationRequest/773287f3-3a22-4a4c-88ea-08f1ca21bbf2"},"resourceType":"Claim","status":"active","total":{"code":"USD","system":"urn:iso:std:iso:4217","value":255},"use":"complete"}},{"resource":{"billablePeriod":{"end":"2013-10-23T08:12:23-04:00","start":"2013-10-23T07:57:23-04:00"},"id":"c81c3e04-8d8d-47de-bcb0-6bd28b8b247d","item":[{"encounter":[{"reference":"Encounter/75e1ce98-a8db-4385-ae28-217b5f9b5b3a"}],"sequence":1}],"meta":{"lastUpdated":"2019-04-09T12:03:30.337581+00:00","versionId":"MTU1NDgxMTQxMDMzNzU4MTAwMA"},"organization":{"reference":"Organization/057e5b30-6566-4cff-80cc-1e899ab80bae"},"patient":{"reference":"Patient/0accf4d2-156a-425c-8400-33c073a0f661"},"resourceType":"Claim","status":"active","total":{"code":"USD","system":"urn:iso:std:iso:4217","value":125},"use":"complete"}},{"resource":{"billablePeriod":{"end":"2016-08-17T08:12:23-04:00","start":"2016-08-17T07:57:23-04:00"},"id":"c8836146-2954-4fed-87a0-8d4b933fabba","item":[{"encounter":[{"reference":"Encounter/fcf220e3-479b-4929-a390-b1663e65a2b9"}],"sequence":1}],"meta":{"lastUpdated":"2019-04-09T12:03:34.455172+00:00","versionId":"MTU1NDgxMTQxNDQ1NTE3MjAwMA"},"organization":{"reference":"Organization/3c1a6594-2deb-4ff5-972a-a209361ec3eb"},"patient":{"reference":"Patient/0accf4d2-156a-425c-8400-33c073a0f661"},"resourceType":"Claim","status":"active","total":{"code":"USD","system":"urn:iso:std:iso:4217","value":125},"use":"complete"}},{"resource":{"billablePeriod":{"end":"2018-01-10T07:12:23-05:00","start":"2018-01-10T06:57:23-05:00"},"id":"c8f0c492-0c25-414e-a01c-7c540a5e8b5c","item":[{"encounter":[{"reference":"Encounter/49048e56-4edf-483c-afde-f2cbb79e5c58"}],"sequence":1}],"meta":{"lastUpdated":"2019-04-09T12:03:36.499062+00:00","versionId":"MTU1NDgxMTQxNjQ5OTA2MjAwMA"},"organization":{"reference":"Organization/057e5b30-6566-4cff-80cc-1e899ab80bae"},"patient":{"reference":"Patient/0accf4d2-156a-425c-8400-33c073a0f661"},"resourceType":"Claim","status":"active","total":{"code":"USD","system":"urn:iso:std:iso:4217","value":125},"use":"complete"}},{"resource":{"billablePeriod":{"end":"2018-12-05T07:27:23-05:00","start":"2018-12-05T06:57:23-05:00"},"id":"ca211a9a-fe5a-4861-adbc-0d6768fd1e84","item":[{"encounter":[{"reference":"Encounter/8075aa3d-545e-4c34-aae0-72b8df9e4592"}],"sequence":1},{"net":{"code":"USD","system":"urn:iso:std:iso:4217","value":560.89},"procedureLinkId":[1],"sequence":2,"service":{"coding":[{"code":"428191000124101","system":"http://snomed.info/sct","version":"v1"}]}}],"meta":{"lastUpdated":"2019-04-09T12:03:37.501811+00:00","versionId":"MTU1NDgxMTQxNzUwMTgxMTAwMA"},"organization":{"reference":"Organization/3c1a6594-2deb-4ff5-972a-a209361ec3eb"},"patient":{"reference":"Patient/0accf4d2-156a-425c-8400-33c073a0f661"},"procedure":[{"procedureReference":{"reference":"Procedure/721e91cb-a91d-46e4-9850-edd6a44881f7"},"sequence":1}],"resourceType":"Claim","status":"active","total":{"code":"USD","system":"urn:iso:std:iso:4217","value":685.89},"use":"complete"}},{"resource":{"billablePeriod":{"end":"2013-01-02T07:12:23-05:00","start":"2013-01-02T06:57:23-05:00"},"id":"cacfacd1-c617-4f42-8689-9f5ec5d177b2","item":[{"encounter":[{"reference":"Encounter/7876f290-4933-49c3-a833-2db9c0c217c9"}],"sequence":1}],"meta":{"lastUpdated":"2019-04-09T12:03:29.375802+00:00","versionId":"MTU1NDgxMTQwOTM3NTgwMjAwMA"},"organization":{"reference":"Organization/057e5b30-6566-4cff-80cc-1e899ab80bae"},"patient":{"reference":"Patient/0accf4d2-156a-425c-8400-33c073a0f661"},"resourceType":"Claim","status":"active","total":{"code":"USD","system":"urn:iso:std:iso:4217","value":125},"use":"complete"}},{"resource":{"billablePeriod":{"end":"2011-06-29T08:12:23-04:00","start":"2011-06-29T07:57:23-04:00"},"id":"ccfdfc12-721c-4cab-acaa-f57ad3a6b944","item":[{"encounter":[{"reference":"Encounter/a2a6f368-2d32-49d6-a4a1-600191a86bae"}],"sequence":1}],"meta":{"lastUpdated":"2019-04-09T12:03:28.277593+00:00","versionId":"MTU1NDgxMTQwODI3NzU5MzAwMA"},"organization":{"reference":"Organization/057e5b30-6566-4cff-80cc-1e899ab80bae"},"patient":{"reference":"Patient/0accf4d2-156a-425c-8400-33c073a0f661"},"resourceType":"Claim","status":"active","total":{"code":"USD","system":"urn:iso:std:iso:4217","value":125},"use":"complete"}},{"resource":{"billablePeriod":{"end":"2011-01-12T07:27:23-05:00","start":"2011-01-12T06:57:23-05:00"},"id":"ce54de96-032b-4375-a2dd-f3d1ff609e5f","item":[{"encounter":[{"reference":"Encounter/c0d2a28c-a94a-4079-98f9-d64d5827a2da"}],"sequence":1},{"net":{"code":"USD","system":"urn:iso:std:iso:4217","value":387.22},"procedureLinkId":[1],"sequence":2,"service":{"coding":[{"code":"428191000124101","system":"http://snomed.info/sct","version":"v1"}]}}],"meta":{"lastUpdated":"2019-04-09T12:03:27.243939+00:00","versionId":"MTU1NDgxMTQwNzI0MzkzOTAwMA"},"organization":{"reference":"Organization/3c1a6594-2deb-4ff5-972a-a209361ec3eb"},"patient":{"reference":"Patient/0accf4d2-156a-425c-8400-33c073a0f661"},"procedure":[{"procedureReference":{"reference":"Procedure/58584a32-e5bf-4801-b421-32718b793228"},"sequence":1}],"resourceType":"Claim","status":"active","total":{"code":"USD","system":"urn:iso:std:iso:4217","value":512.22},"use":"complete"}},{"resource":{"billablePeriod":{"end":"2016-02-03T07:12:23-05:00","start":"2016-02-03T06:57:23-05:00"},"id":"ceb6e3bd-3360-4568-8a99-27edbfade70b","item":[{"encounter":[{"reference":"Encounter/22ea4017-bfa0-49ae-b73b-bb7c370068f8"}],"sequence":1}],"meta":{"lastUpdated":"2019-04-09T12:03:34.436630+00:00","versionId":"MTU1NDgxMTQxNDQzNjYzMDAwMA"},"organization":{"reference":"Organization/057e5b30-6566-4cff-80cc-1e899ab80bae"},"patient":{"reference":"Patient/0accf4d2-156a-425c-8400-33c073a0f661"},"resourceType":"Claim","status":"active","total":{"code":"USD","system":"urn:iso:std:iso:4217","value":125},"use":"complete"}},{"resource":{"billablePeriod":{"end":"2014-04-02T08:12:23-04:00","start":"2014-04-02T07:57:23-04:00"},"id":"ceb894a7-1e3a-421d-8114-9b99cba6f6fc","item":[{"encounter":[{"reference":"Encounter/698efea4-5011-4a9a-85e2-c3f6dd24ddf1"}],"sequence":1}],"meta":{"lastUpdated":"2019-04-09T12:03:32.369274+00:00","versionId":"MTU1NDgxMTQxMjM2OTI3NDAwMA"},"organization":{"reference":"Organization/3c1a6594-2deb-4ff5-972a-a209361ec3eb"},"patient":{"reference":"Patient/0accf4d2-156a-425c-8400-33c073a0f661"},"resourceType":"Claim","status":"active","total":{"code":"USD","system":"urn:iso:std:iso:4217","value":125},"use":"complete"}},{"resource":{"billablePeriod":{"end":"2011-08-10T08:12:23-04:00","start":"2011-08-10T07:57:23-04:00"},"id":"cf2e01dc-fad1-4b6a-883d-150b2daa52b9","item":[{"encounter":[{"reference":"Encounter/d09e5906-2490-46cb-8dcd-034abc113b68"}],"sequence":1}],"meta":{"lastUpdated":"2019-04-09T12:03:28.267356+00:00","versionId":"MTU1NDgxMTQwODI2NzM1NjAwMA"},"organization":{"reference":"Organization/057e5b30-6566-4cff-80cc-1e899ab80bae"},"patient":{"reference":"Patient/0accf4d2-156a-425c-8400-33c073a0f661"},"resourceType":"Claim","status":"active","total":{"code":"USD","system":"urn:iso:std:iso:4217","value":125},"use":"complete"}},{"resource":{"billablePeriod":{"end":"2010-06-23T08:12:23-04:00","start":"2010-06-23T07:57:23-04:00"},"id":"d0c4ff8d-677a-4d76-bd80-dd5a9fc1bcef","item":[{"encounter":[{"reference":"Encounter/f1f9b727-e851-4541-bb6b-95b6f5049e40"}],"sequence":1}],"meta":{"lastUpdated":"2019-04-09T12:03:27.218410+00:00","versionId":"MTU1NDgxMTQwNzIxODQxMDAwMA"},"organization":{"reference":"Organization/057e5b30-6566-4cff-80cc-1e899ab80bae"},"patient":{"reference":"Patient/0accf4d2-156a-425c-8400-33c073a0f661"},"resourceType":"Claim","status":"active","total":{"code":"USD","system":"urn:iso:std:iso:4217","value":125},"use":"complete"}},{"resource":{"billablePeriod":{"end":"2001-06-23T08:29:23-04:00","start":"2001-06-23T07:57:23-04:00"},"id":"d4cc4633-e207-4543-9c34-2d65f099217b","item":[{"encounter":[{"reference":"Encounter/05346ee6-81fb-40c9-9016-ec9a309046df"}],"sequence":1}],"meta":{"lastUpdated":"2019-04-09T12:03:26.164110+00:00","versionId":"MTU1NDgxMTQwNjE2NDExMDAwMA"},"organization":{"reference":"Organization/3c1a6594-2deb-4ff5-972a-a209361ec3eb"},"patient":{"reference":"Patient/0accf4d2-156a-425c-8400-33c073a0f661"},"prescription":{"reference":"MedicationRequest/56f595d2-ae97-4111-8491-985291984b48"},"resourceType":"Claim","status":"active","total":{"code":"USD","system":"urn:iso:std:iso:4217","value":255},"use":"complete"}},{"resource":{"billablePeriod":{"end":"1988-05-23T08:39:23-04:00","start":"1988-05-23T07:57:23-04:00"},"id":"d7728d0b-6823-4431-9f09-a8b967bbec17","item":[{"encounter":[{"reference":"Encounter/76c57feb-753d-455e-af4c-c7d2a79048dc"}],"sequence":1}],"meta":{"lastUpdated":"2019-04-09T12:03:26.160170+00:00","versionId":"MTU1NDgxMTQwNjE2MDE3MDAwMA"},"organization":{"reference":"Organization/3c1a6594-2deb-4ff5-972a-a209361ec3eb"},"patient":{"reference":"Patient/0accf4d2-156a-425c-8400-33c073a0f661"},"prescription":{"reference":"MedicationRequest/0ff95e07-7753-4332-84da-f14159a90ba7"},"resourceType":"Claim","status":"active","total":{"code":"USD","system":"urn:iso:std:iso:4217","value":255},"use":"complete"}},{"resource":{"billablePeriod":{"end":"2013-08-28T08:12:23-04:00","start":"2013-08-28T07:57:23-04:00"},"id":"d92be0db-6ba1-4095-8c03-0ff2a7395c44","item":[{"encounter":[{"reference":"Encounter/79bec688-7b46-450e-a9a0-245aca092bf4"}],"sequence":1}],"meta":{"lastUpdated":"2019-04-09T12:03:30.343245+00:00","versionId":"MTU1NDgxMTQxMDM0MzI0NTAwMA"},"organization":{"reference":"Organization/057e5b30-6566-4cff-80cc-1e899ab80bae"},"patient":{"reference":"Patient/0accf4d2-156a-425c-8400-33c073a0f661"},"resourceType":"Claim","status":"active","total":{"code":"USD","system":"urn:iso:std:iso:4217","value":125},"use":"complete"}},{"resource":{"billablePeriod":{"end":"1978-11-19T09:27:23-05:00","start":"1978-11-19T06:57:23-05:00"},"id":"d9a57e00-c0d5-4979-a515-816d0e0b23ff","item":[{"encounter":[{"reference":"Encounter/66ac8ffd-0fd7-4850-af70-751b44809da7"}],"sequence":1}],"meta":{"lastUpdated":"2019-04-09T12:03:26.153995+00:00","versionId":"MTU1NDgxMTQwNjE1Mzk5NTAwMA"},"organization":{"reference":"Organization/3c1a6594-2deb-4ff5-972a-a209361ec3eb"},"patient":{"reference":"Patient/0accf4d2-156a-425c-8400-33c073a0f661"},"resourceType":"Claim","status":"active","total":{"code":"USD","system":"urn:iso:std:iso:4217","value":125},"use":"complete"}},{"resource":{"billablePeriod":{"end":"2017-05-10T08:12:23-04:00","start":"2017-05-10T07:57:23-04:00"},"id":"daffd3c3-502c-488c-9deb-24737e7b0b26","item":[{"encounter":[{"reference":"Encounter/e631b8b9-8793-45c8-9be9-c466a444d727"}],"sequence":1}],"meta":{"lastUpdated":"2019-04-09T12:03:35.481689+00:00","versionId":"MTU1NDgxMTQxNTQ4MTY4OTAwMA"},"organization":{"reference":"Organization/057e5b30-6566-4cff-80cc-1e899ab80bae"},"patient":{"reference":"Patient/0accf4d2-156a-425c-8400-33c073a0f661"},"resourceType":"Claim","status":"active","total":{"code":"USD","system":"urn:iso:std:iso:4217","value":125},"use":"complete"}},{"resource":{"billablePeriod":{"end":"2011-02-09T07:27:23-05:00","start":"2011-02-09T06:57:23-05:00"},"id":"dcb689fe-c82c-4788-b09f-9918ad66847a","item":[{"encounter":[{"reference":"Encounter/f80399f7-5182-45f8-9634-5c8186898bdf"}],"sequence":1},{"net":{"code":"USD","system":"urn:iso:std:iso:4217","value":640.43},"procedureLinkId":[1],"sequence":2,"service":{"coding":[{"code":"428191000124101","system":"http://snomed.info/sct","version":"v1"}]}}],"meta":{"lastUpdated":"2019-04-09T12:03:27.250542+00:00","versionId":"MTU1NDgxMTQwNzI1MDU0MjAwMA"},"organization":{"reference":"Organization/3c1a6594-2deb-4ff5-972a-a209361ec3eb"},"patient":{"reference":"Patient/0accf4d2-156a-425c-8400-33c073a0f661"},"procedure":[{"procedureReference":{"reference":"Procedure/2e0f3b0e-852c-4dd2-8c32-a22536a82dfa"},"sequence":1}],"resourceType":"Claim","status":"active","total":{"code":"USD","system":"urn:iso:std:iso:4217","value":765.43},"use":"complete"}},{"resource":{"billablePeriod":{"end":"2014-09-25T09:11:23-04:00","start":"2014-09-25T07:57:23-04:00"},"id":"dcd6157b-cac3-496a-91f1-71a578b8c9ed","item":[{"encounter":[{"reference":"Encounter/dd1f80ff-0a95-4548-b62c-1d8a683f17f7"}],"sequence":1}],"meta":{"lastUpdated":"2019-04-09T12:03:32.360803+00:00","versionId":"MTU1NDgxMTQxMjM2MDgwMzAwMA"},"organization":{"reference":"Organization/3c1a6594-2deb-4ff5-972a-a209361ec3eb"},"patient":{"reference":"Patient/0accf4d2-156a-425c-8400-33c073a0f661"},"prescription":{"reference":"MedicationRequest/422b0337-d42e-43d6-9325-69e19ef9b0a6"},"resourceType":"Claim","status":"active","total":{"code":"USD","system":"urn:iso:std:iso:4217","value":255},"use":"complete"}},{"resource":{"billablePeriod":{"end":"2010-03-24T08:12:23-04:00","start":"2010-03-24T07:57:23-04:00"},"id":"dcdb10fa-d5c9-47c3-b8d7-d878928020d4","item":[{"encounter":[{"reference":"Encounter/f7302771-7858-4a66-bbdd-a20a7e01e774"}],"sequence":1}],"meta":{"lastUpdated":"2019-04-09T12:03:27.220183+00:00","versionId":"MTU1NDgxMTQwNzIyMDE4MzAwMA"},"organization":{"reference":"Organization/3c1a6594-2deb-4ff5-972a-a209361ec3eb"},"patient":{"reference":"Patient/0accf4d2-156a-425c-8400-33c073a0f661"},"resourceType":"Claim","status":"active","total":{"code":"USD","system":"urn:iso:std:iso:4217","value":125},"use":"complete"}},{"resource":{"billablePeriod":{"end":"2016-07-13T08:12:23-04:00","start":"2016-07-13T07:57:23-04:00"},"id":"dd204235-f9b6-4db3-87fa-f198d9936906","item":[{"encounter":[{"reference":"Encounter/4afa4653-a6ff-420c-aa00-d4c597709cb1"}],"sequence":1}],"meta":{"lastUpdated":"2019-04-09T12:03:34.446966+00:00","versionId":"MTU1NDgxMTQxNDQ0Njk2NjAwMA"},"organization":{"reference":"Organization/057e5b30-6566-4cff-80cc-1e899ab80bae"},"patient":{"reference":"Patient/0accf4d2-156a-425c-8400-33c073a0f661"},"resourceType":"Claim","status":"active","total":{"code":"USD","system":"urn:iso:std:iso:4217","value":125},"use":"complete"}},{"resource":{"billablePeriod":{"end":"2010-01-13T07:12:23-05:00","start":"2010-01-13T06:57:23-05:00"},"id":"de6280e7-1428-41da-9c98-fbdc2a831914","item":[{"encounter":[{"reference":"Encounter/f36f02ef-f8e7-44f0-972c-b33f50c8a5fa"}],"sequence":1}],"meta":{"lastUpdated":"2019-04-09T12:03:27.210193+00:00","versionId":"MTU1NDgxMTQwNzIxMDE5MzAwMA"},"organization":{"reference":"Organization/057e5b30-6566-4cff-80cc-1e899ab80bae"},"patient":{"reference":"Patient/0accf4d2-156a-425c-8400-33c073a0f661"},"resourceType":"Claim","status":"active","total":{"code":"USD","system":"urn:iso:std:iso:4217","value":125},"use":"complete"}},{"resource":{"billablePeriod":{"end":"2012-10-31T08:12:23-04:00","start":"2012-10-31T07:57:23-04:00"},"id":"dfe873ba-17d2-49e4-a20e-0191db43a726","item":[{"encounter":[{"reference":"Encounter/67736919-c0be-4653-ac4f-cb7c88f82a40"}],"sequence":1}],"meta":{"lastUpdated":"2019-04-09T12:03:29.357480+00:00","versionId":"MTU1NDgxMTQwOTM1NzQ4MDAwMA"},"organization":{"reference":"Organization/057e5b30-6566-4cff-80cc-1e899ab80bae"},"patient":{"reference":"Patient/0accf4d2-156a-425c-8400-33c073a0f661"},"resourceType":"Claim","status":"active","total":{"code":"USD","system":"urn:iso:std:iso:4217","value":125},"use":"complete"}},{"resource":{"billablePeriod":{"end":"2010-03-17T08:12:23-04:00","start":"2010-03-17T07:57:23-04:00"},"id":"e0315c9e-cd99-4799-a626-71bfce85cfd7","item":[{"encounter":[{"reference":"Encounter/a9f1cc41-9d96-423e-b29f-0031f348e928"}],"sequence":1}],"meta":{"lastUpdated":"2019-04-09T12:03:27.210112+00:00","versionId":"MTU1NDgxMTQwNzIxMDExMjAwMA"},"organization":{"reference":"Organization/057e5b30-6566-4cff-80cc-1e899ab80bae"},"patient":{"reference":"Patient/0accf4d2-156a-425c-8400-33c073a0f661"},"resourceType":"Claim","status":"active","total":{"code":"USD","system":"urn:iso:std:iso:4217","value":125},"use":"complete"}},{"resource":{"billablePeriod":{"end":"2015-03-25T08:12:23-04:00","start":"2015-03-25T07:57:23-04:00"},"id":"e05febe7-87f7-4935-a4fc-fb53c549e13d","item":[{"encounter":[{"reference":"Encounter/63541d5b-671c-4628-9de8-0b77b3609e6d"}],"sequence":1}],"meta":{"lastUpdated":"2019-04-09T12:03:33.397997+00:00","versionId":"MTU1NDgxMTQxMzM5Nzk5NzAwMA"},"organization":{"reference":"Organization/057e5b30-6566-4cff-80cc-1e899ab80bae"},"patient":{"reference":"Patient/0accf4d2-156a-425c-8400-33c073a0f661"},"resourceType":"Claim","status":"active","total":{"code":"USD","system":"urn:iso:std:iso:4217","value":125},"use":"complete"}},{"resource":{"billablePeriod":{"end":"1978-11-19T09:27:23-05:00","start":"1978-11-19T06:57:23-05:00"},"id":"e0b7c112-aa1b-4e73-8af5-8ca71e7ed46b","item":[{"encounter":[{"reference":"Encounter/66ac8ffd-0fd7-4850-af70-751b44809da7"}],"sequence":1}],"meta":{"lastUpdated":"2019-04-09T12:03:26.154468+00:00","versionId":"MTU1NDgxMTQwNjE1NDQ2ODAwMA"},"organization":{"reference":"Organization/3c1a6594-2deb-4ff5-972a-a209361ec3eb"},"patient":{"reference":"Patient/0accf4d2-156a-425c-8400-33c073a0f661"},"prescription":{"reference":"MedicationRequest/4ae174fe-654c-4064-8d8e-37815fe22c03"},"resourceType":"Claim","status":"active","total":{"code":"USD","system":"urn:iso:std:iso:4217","value":255},"use":"complete"}},{"resource":{"billablePeriod":{"end":"2014-06-25T08:12:23-04:00","start":"2014-06-25T07:57:23-04:00"},"id":"e0f94eee-9729-49e3-b521-6f9af118c33e","item":[{"encounter":[{"reference":"Encounter/5a43c0ed-a48a-4083-8718-6f163b0d2fd3"}],"sequence":1}],"meta":{"lastUpdated":"2019-04-09T12:03:32.380372+00:00","versionId":"MTU1NDgxMTQxMjM4MDM3MjAwMA"},"organization":{"reference":"Organization/057e5b30-6566-4cff-80cc-1e899ab80bae"},"patient":{"reference":"Patient/0accf4d2-156a-425c-8400-33c073a0f661"},"resourceType":"Claim","status":"active","total":{"code":"USD","system":"urn:iso:std:iso:4217","value":125},"use":"complete"}},{"resource":{"billablePeriod":{"end":"2011-07-13T08:57:23-04:00","start":"2011-07-13T07:57:23-04:00"},"id":"e15441b4-b019-41f8-b776-81e406dd9261","item":[{"encounter":[{"reference":"Encounter/fdd0df83-f6e4-486a-9fd4-9f693244f263"}],"sequence":1}],"meta":{"lastUpdated":"2019-04-09T12:03:28.271643+00:00","versionId":"MTU1NDgxMTQwODI3MTY0MzAwMA"},"organization":{"reference":"Organization/3c1a6594-2deb-4ff5-972a-a209361ec3eb"},"patient":{"reference":"Patient/0accf4d2-156a-425c-8400-33c073a0f661"},"resourceType":"Claim","status":"active","total":{"code":"USD","system":"urn:iso:std:iso:4217","value":125},"use":"complete"}},{"resource":{"billablePeriod":{"end":"2018-01-03T07:12:23-05:00","start":"2018-01-03T06:57:23-05:00"},"id":"e38a7b9d-b543-44d6-96a5-8e1aafdf9cd4","item":[{"encounter":[{"reference":"Encounter/b90ab82b-07e6-4d32-a19f-1a8e536b124e"}],"sequence":1}],"meta":{"lastUpdated":"2019-04-09T12:03:36.487784+00:00","versionId":"MTU1NDgxMTQxNjQ4Nzc4NDAwMA"},"organization":{"reference":"Organization/057e5b30-6566-4cff-80cc-1e899ab80bae"},"patient":{"reference":"Patient/0accf4d2-156a-425c-8400-33c073a0f661"},"resourceType":"Claim","status":"active","total":{"code":"USD","system":"urn:iso:std:iso:4217","value":125},"use":"complete"}},{"resource":{"billablePeriod":{"end":"2018-07-04T08:27:23-04:00","start":"2018-07-04T07:57:23-04:00"},"id":"e5e9b82c-84a3-45b2-a62c-c5ea65db79d0","item":[{"encounter":[{"reference":"Encounter/82b893df-807a-4031-ad10-abbbb2c4e7db"}],"sequence":1},{"net":{"code":"USD","system":"urn:iso:std:iso:4217","value":840.93},"procedureLinkId":[1],"sequence":2,"service":{"coding":[{"code":"428191000124101","system":"http://snomed.info/sct","version":"v1"}]}}],"meta":{"lastUpdated":"2019-04-09T12:03:37.501809+00:00","versionId":"MTU1NDgxMTQxNzUwMTgwOTAwMA"},"organization":{"reference":"Organization/3c1a6594-2deb-4ff5-972a-a209361ec3eb"},"patient":{"reference":"Patient/0accf4d2-156a-425c-8400-33c073a0f661"},"procedure":[{"procedureReference":{"reference":"Procedure/31930dc3-483d-41f8-9548-515611ddd7fb"},"sequence":1}],"resourceType":"Claim","status":"active","total":{"code":"USD","system":"urn:iso:std:iso:4217","value":965.93},"use":"complete"}},{"resource":{"billablePeriod":{"end":"2009-04-29T08:57:23-04:00","start":"2009-04-29T07:57:23-04:00"},"id":"e7a1d33d-210a-4033-97b3-2505741aac9e","item":[{"encounter":[{"reference":"Encounter/205187ac-f889-4688-9858-0db731e5d173"}],"sequence":1}],"meta":{"lastUpdated":"2019-04-09T12:03:26.169996+00:00","versionId":"MTU1NDgxMTQwNjE2OTk5NjAwMA"},"organization":{"reference":"Organization/3c1a6594-2deb-4ff5-972a-a209361ec3eb"},"patient":{"reference":"Patient/0accf4d2-156a-425c-8400-33c073a0f661"},"resourceType":"Claim","status":"active","total":{"code":"USD","system":"urn:iso:std:iso:4217","value":125},"use":"complete"}},{"resource":{"billablePeriod":{"end":"2019-01-07T07:25:23-05:00","start":"2019-01-07T06:57:23-05:00"},"diagnosis":[{"diagnosisReference":{"reference":"Condition/9a5afc65-90c4-4a66-af59-bc4b260a39b4"},"sequence":1}],"id":"ead9e3a1-ec7b-4c63-abcf-d15061fc8bd6","item":[{"encounter":[{"reference":"Encounter/68ea31fb-dba8-4fdf-b79f-2125ab326cbe"}],"sequence":1},{"diagnosisLinkId":[1],"sequence":2},{"net":{"code":"USD","system":"urn:iso:std:iso:4217","value":8979.16},"procedureLinkId":[1],"sequence":3,"service":{"coding":[{"code":"399208008","system":"http://snomed.info/sct","version":"v1"}]}}],"meta":{"lastUpdated":"2019-04-09T12:03:37.512651+00:00","versionId":"MTU1NDgxMTQxNzUxMjY1MTAwMA"},"organization":{"reference":"Organization/3c1a6594-2deb-4ff5-972a-a209361ec3eb"},"patient":{"reference":"Patient/0accf4d2-156a-425c-8400-33c073a0f661"},"procedure":[{"procedureReference":{"reference":"Procedure/9064b536-ce79-46bd-a4d4-e6cdabe6df1a"},"sequence":1}],"resourceType":"Claim","status":"active","total":{"code":"USD","system":"urn:iso:std:iso:4217","value":9104.16},"use":"complete"}},{"resource":{"billablePeriod":{"end":"2018-01-31T07:12:23-05:00","start":"2018-01-31T06:57:23-05:00"},"id":"eba56bd8-b205-43d1-ac2c-ef5c1b328114","item":[{"encounter":[{"reference":"Encounter/e5427038-0294-4a63-9f2d-11f4ad47ced6"}],"sequence":1}],"meta":{"lastUpdated":"2019-04-09T12:03:36.488678+00:00","versionId":"MTU1NDgxMTQxNjQ4ODY3ODAwMA"},"organization":{"reference":"Organization/3c1a6594-2deb-4ff5-972a-a209361ec3eb"},"patient":{"reference":"Patient/0accf4d2-156a-425c-8400-33c073a0f661"},"resourceType":"Claim","status":"active","total":{"code":"USD","system":"urn:iso:std:iso:4217","value":125},"use":"complete"}},{"resource":{"billablePeriod":{"end":"1991-07-24T08:12:23-04:00","start":"1991-07-24T07:57:23-04:00"},"diagnosis":[{"diagnosisReference":{"reference":"Condition/72a1598f-5140-4ef4-8a39-caf82b1e099a"},"sequence":1}],"id":"eee4f402-0d1c-4867-ab68-034b2a00c8e5","item":[{"encounter":[{"reference":"Encounter/a40b9b1c-62fc-40a3-8fe5-d3027e95acde"}],"sequence":1},{"diagnosisLinkId":[1],"sequence":2}],"meta":{"lastUpdated":"2019-04-09T12:03:26.160172+00:00","versionId":"MTU1NDgxMTQwNjE2MDE3MjAwMA"},"organization":{"reference":"Organization/3c1a6594-2deb-4ff5-972a-a209361ec3eb"},"patient":{"reference":"Patient/0accf4d2-156a-425c-8400-33c073a0f661"},"resourceType":"Claim","status":"active","total":{"code":"USD","system":"urn:iso:std:iso:4217","value":125},"use":"complete"}},{"resource":{"billablePeriod":{"end":"2011-06-21T08:12:23-04:00","start":"2011-06-21T07:57:23-04:00"},"diagnosis":[{"diagnosisReference":{"reference":"Condition/e3d22c27-872b-4c3b-829e-7bee14821c34"},"sequence":1}],"id":"f09e6d30-fd7a-4bdc-8d88-4c9639f22a08","item":[{"encounter":[{"reference":"Encounter/88a912f0-8104-4592-999f-14be09896a65"}],"sequence":1},{"diagnosisLinkId":[1],"sequence":2}],"meta":{"lastUpdated":"2019-04-09T12:03:28.267798+00:00","versionId":"MTU1NDgxMTQwODI2Nzc5ODAwMA"},"organization":{"reference":"Organization/3c1a6594-2deb-4ff5-972a-a209361ec3eb"},"patient":{"reference":"Patient/0accf4d2-156a-425c-8400-33c073a0f661"},"resourceType":"Claim","status":"active","total":{"code":"USD","system":"urn:iso:std:iso:4217","value":125},"use":"complete"}},{"resource":{"billablePeriod":{"end":"2018-12-26T07:12:23-05:00","start":"2018-12-26T06:57:23-05:00"},"id":"f1f14048-b4cd-4e0b-9080-9cab0cd4b5d9","item":[{"encounter":[{"reference":"Encounter/db67f599-7a90-4feb-b5f1-771cca9c5269"}],"sequence":1}],"meta":{"lastUpdated":"2019-04-09T12:03:37.514092+00:00","versionId":"MTU1NDgxMTQxNzUxNDA5MjAwMA"},"organization":{"reference":"Organization/3c1a6594-2deb-4ff5-972a-a209361ec3eb"},"patient":{"reference":"Patient/0accf4d2-156a-425c-8400-33c073a0f661"},"resourceType":"Claim","status":"active","total":{"code":"USD","system":"urn:iso:std:iso:4217","value":125},"use":"complete"}},{"resource":{"billablePeriod":{"end":"2013-08-07T08:27:23-04:00","start":"2013-08-07T07:57:23-04:00"},"id":"f4bedeec-fdda-48d7-aa8b-6f835a7536a8","item":[{"encounter":[{"reference":"Encounter/d8e5cd14-488a-4d6f-a12a-40c60610b517"}],"sequence":1},{"net":{"code":"USD","system":"urn:iso:std:iso:4217","value":651.61},"procedureLinkId":[1],"sequence":2,"service":{"coding":[{"code":"428191000124101","system":"http://snomed.info/sct","version":"v1"}]}}],"meta":{"lastUpdated":"2019-04-09T12:03:30.327055+00:00","versionId":"MTU1NDgxMTQxMDMyNzA1NTAwMA"},"organization":{"reference":"Organization/3c1a6594-2deb-4ff5-972a-a209361ec3eb"},"patient":{"reference":"Patient/0accf4d2-156a-425c-8400-33c073a0f661"},"procedure":[{"procedureReference":{"reference":"Procedure/c75b02c8-c16a-4e62-9889-73ecb3cf739c"},"sequence":1}],"resourceType":"Claim","status":"active","total":{"code":"USD","system":"urn:iso:std:iso:4217","value":776.61},"use":"complete"}},{"resource":{"billablePeriod":{"end":"2013-11-15T08:13:23-05:00","start":"2013-11-15T06:57:23-05:00"},"id":"f8d6bba1-7763-477d-a513-8c7dd3401bc7","item":[{"encounter":[{"reference":"Encounter/4171df32-40e3-465b-ab54-34f2596b5f95"}],"sequence":1}],"meta":{"lastUpdated":"2019-04-09T12:03:31.367836+00:00","versionId":"MTU1NDgxMTQxMTM2NzgzNjAwMA"},"organization":{"reference":"Organization/3c1a6594-2deb-4ff5-972a-a209361ec3eb"},"patient":{"reference":"Patient/0accf4d2-156a-425c-8400-33c073a0f661"},"prescription":{"reference":"MedicationRequest/5ec2500d-de06-4cea-9653-023ea1b45a54"},"resourceType":"Claim","status":"active","total":{"code":"USD","system":"urn:iso:std:iso:4217","value":255},"use":"complete"}},{"resource":{"billablePeriod":{"end":"2017-06-07T08:12:23-04:00","start":"2017-06-07T07:57:23-04:00"},"id":"fc10ef53-081e-4b33-9f71-b3566d072c44","item":[{"encounter":[{"reference":"Encounter/6a1c073c-612d-437f-9485-31bae1b5db3c"}],"sequence":1}],"meta":{"lastUpdated":"2019-04-09T12:03:35.483978+00:00","versionId":"MTU1NDgxMTQxNTQ4Mzk3ODAwMA"},"organization":{"reference":"Organization/057e5b30-6566-4cff-80cc-1e899ab80bae"},"patient":{"reference":"Patient/0accf4d2-156a-425c-8400-33c073a0f661"},"resourceType":"Claim","status":"active","total":{"code":"USD","system":"urn:iso:std:iso:4217","value":125},"use":"complete"}},{"resource":{"billablePeriod":{"end":"2011-09-07T08:12:23-04:00","start":"2011-09-07T07:57:23-04:00"},"id":"fc70b029-b7c8-4760-9632-ca456686134c","item":[{"encounter":[{"reference":"Encounter/7d5f90cf-9aa2-44f4-b05a-9c55d47bd832"}],"sequence":1}],"meta":{"lastUpdated":"2019-04-09T12:03:28.272783+00:00","versionId":"MTU1NDgxMTQwODI3Mjc4MzAwMA"},"organization":{"reference":"Organization/057e5b30-6566-4cff-80cc-1e899ab80bae"},"patient":{"reference":"Patient/0accf4d2-156a-425c-8400-33c073a0f661"},"resourceType":"Claim","status":"active","total":{"code":"USD","system":"urn:iso:std:iso:4217","value":125},"use":"complete"}},{"resource":{"billablePeriod":{"end":"2009-05-06T08:12:23-04:00","start":"2009-05-06T07:57:23-04:00"},"id":"fd8b50f2-3881-4582-80c7-2c1c97b3c2d6","item":[{"encounter":[{"reference":"Encounter/f83cf85c-5cf1-4dfc-b469-f73650dcb228"}],"sequence":1}],"meta":{"lastUpdated":"2019-04-09T12:03:26.170288+00:00","versionId":"MTU1NDgxMTQwNjE3MDI4ODAwMA"},"organization":{"reference":"Organization/057e5b30-6566-4cff-80cc-1e899ab80bae"},"patient":{"reference":"Patient/0accf4d2-156a-425c-8400-33c073a0f661"},"resourceType":"Claim","status":"active","total":{"code":"USD","system":"urn:iso:std:iso:4217","value":125},"use":"complete"}},{"resource":{"billablePeriod":{"end":"2011-05-11T08:12:23-04:00","start":"2011-05-11T07:57:23-04:00"},"id":"fe699d54-6861-499b-b5e2-203043e31bcb","item":[{"encounter":[{"reference":"Encounter/7a1bc982-58d2-4c1f-a7a9-beae92309eee"}],"sequence":1}],"meta":{"lastUpdated":"2019-04-09T12:03:27.253445+00:00","versionId":"MTU1NDgxMTQwNzI1MzQ0NTAwMA"},"organization":{"reference":"Organization/057e5b30-6566-4cff-80cc-1e899ab80bae"},"patient":{"reference":"Patient/0accf4d2-156a-425c-8400-33c073a0f661"},"resourceType":"Claim","status":"active","total":{"code":"USD","system":"urn:iso:std:iso:4217","value":125},"use":"complete"}},{"resource":{"assertedDate":"1988-08-10T07:57:23-04:00","clinicalStatus":"active","code":{"coding":[{"code":"302870006","display":"Hypertriglyceridemia (disorder)","system":"http://snomed.info/sct"}],"text":"Hypertriglyceridemia (disorder)"},"context":{"reference":"Encounter/09e3ed9e-1166-4a11-93c6-216c9a560b90"},"id":"05d4448f-e1f6-405f-b8c8-2688af49443d","meta":{"lastUpdated":"2019-04-09T12:03:26.160401+00:00","versionId":"MTU1NDgxMTQwNjE2MDQwMTAwMA"},"onsetDateTime":"1988-08-10T07:57:23-04:00","resourceType":"Condition","subject":{"reference":"Patient/0accf4d2-156a-425c-8400-33c073a0f661"},"verificationStatus":"confirmed"}},{"resource":{"assertedDate":"1986-07-09T07:57:23-04:00","clinicalStatus":"active","code":{"coding":[{"code":"44054006","display":"Diabetes","system":"http://snomed.info/sct"}],"text":"Diabetes"},"context":{"reference":"Encounter/a049b370-89d5-435e-86e2-5a3132d018a7"},"id":"06bb94eb-5214-4101-8b97-fd5839f8c29e","meta":{"lastUpdated":"2019-04-09T12:03:26.169681+00:00","versionId":"MTU1NDgxMTQwNjE2OTY4MTAwMA"},"onsetDateTime":"1986-07-09T07:57:23-04:00","resourceType":"Condition","subject":{"reference":"Patient/0accf4d2-156a-425c-8400-33c073a0f661"},"verificationStatus":"confirmed"}},{"resource":{"assertedDate":"1986-07-09T07:57:23-04:00","clinicalStatus":"active","code":{"coding":[{"code":"7200002","display":"Alcoholism","system":"http://snomed.info/sct"}],"text":"Alcoholism"},"context":{"reference":"Encounter/a049b370-89d5-435e-86e2-5a3132d018a7"},"id":"40bb751e-e1ca-4ffc-88ae-b646796ce901","meta":{"lastUpdated":"2019-04-09T12:03:26.159408+00:00","versionId":"MTU1NDgxMTQwNjE1OTQwODAwMA"},"onsetDateTime":"1986-07-09T07:57:23-04:00","resourceType":"Condition","subject":{"reference":"Patient/0accf4d2-156a-425c-8400-33c073a0f661"},"verificationStatus":"confirmed"}},{"resource":{"assertedDate":"1988-08-10T07:57:23-04:00","clinicalStatus":"active","code":{"coding":[{"code":"237602007","display":"Metabolic syndrome X (disorder)","system":"http://snomed.info/sct"}],"text":"Metabolic syndrome X (disorder)"},"context":{"reference":"Encounter/09e3ed9e-1166-4a11-93c6-216c9a560b90"},"id":"53936748-5e95-46e1-8a36-5e3a55f866dd","meta":{"lastUpdated":"2019-04-09T12:03:26.160404+00:00","versionId":"MTU1NDgxMTQwNjE2MDQwNDAwMA"},"onsetDateTime":"1988-08-10T07:57:23-04:00","resourceType":"Condition","subject":{"reference":"Patient/0accf4d2-156a-425c-8400-33c073a0f661"},"verificationStatus":"confirmed"}},{"resource":{"abatementDateTime":"2015-02-07T06:57:23-05:00","assertedDate":"2015-01-31T06:57:23-05:00","clinicalStatus":"resolved","code":{"coding":[{"code":"10509002","display":"Acute bronchitis (disorder)","system":"http://snomed.info/sct"}],"text":"Acute bronchitis (disorder)"},"context":{"reference":"Encounter/68ceac21-20b0-45ab-b746-da40b0e6d94a"},"id":"60d48c64-2c71-422d-8e82-15619a883d33","meta":{"lastUpdated":"2019-04-09T12:03:32.391452+00:00","versionId":"MTU1NDgxMTQxMjM5MTQ1MjAwMA"},"onsetDateTime":"2015-01-31T06:57:23-05:00","resourceType":"Condition","subject":{"reference":"Patient/0accf4d2-156a-425c-8400-33c073a0f661"},"verificationStatus":"confirmed"}},{"resource":{"assertedDate":"1991-07-24T07:57:23-04:00","clinicalStatus":"active","code":{"coding":[{"code":"422034002","display":"Diabetic retinopathy associated with type II diabetes mellitus (disorder)","system":"http://snomed.info/sct"}],"text":"Diabetic retinopathy associated with type II diabetes mellitus (disorder)"},"context":{"reference":"Encounter/a40b9b1c-62fc-40a3-8fe5-d3027e95acde"},"id":"72a1598f-5140-4ef4-8a39-caf82b1e099a","meta":{"lastUpdated":"2019-04-09T12:03:26.159223+00:00","versionId":"MTU1NDgxMTQwNjE1OTIyMzAwMA"},"onsetDateTime":"1991-07-24T07:57:23-04:00","resourceType":"Condition","subject":{"reference":"Patient/0accf4d2-156a-425c-8400-33c073a0f661"},"verificationStatus":"confirmed"}},{"resource":{"abatementDateTime":"2016-02-14T06:57:23-05:00","assertedDate":"2016-01-24T06:57:23-05:00","clinicalStatus":"resolved","code":{"coding":[{"code":"444814009","display":"Viral sinusitis (disorder)","system":"http://snomed.info/sct"}],"text":"Viral sinusitis (disorder)"},"context":{"reference":"Encounter/9a55171b-3a3f-4a74-8e25-9f697241c00e"},"id":"7a9bb97f-a342-4da0-8549-7ee80060d885","meta":{"lastUpdated":"2019-04-09T12:03:34.437876+00:00","versionId":"MTU1NDgxMTQxNDQzNzg3NjAwMA"},"onsetDateTime":"2016-01-24T06:57:23-05:00","resourceType":"Condition","subject":{"reference":"Patient/0accf4d2-156a-425c-8400-33c073a0f661"},"verificationStatus":"confirmed"}},{"resource":{"assertedDate":"1988-08-10T07:57:23-04:00","clinicalStatus":"active","code":{"coding":[{"code":"127013003","display":"Diabetic renal disease (disorder)","system":"http://snomed.info/sct"}],"text":"Diabetic renal disease (disorder)"},"context":{"reference":"Encounter/09e3ed9e-1166-4a11-93c6-216c9a560b90"},"id":"8896a97c-142e-4853-9e13-9865ae8ad600","meta":{"lastUpdated":"2019-04-09T12:03:26.160405+00:00","versionId":"MTU1NDgxMTQwNjE2MDQwNTAwMA"},"onsetDateTime":"1988-08-10T07:57:23-04:00","resourceType":"Condition","subject":{"reference":"Patient/0accf4d2-156a-425c-8400-33c073a0f661"},"verificationStatus":"confirmed"}},{"resource":{"abatementDateTime":"2014-10-16T07:57:23-04:00","assertedDate":"2014-09-25T07:57:23-04:00","clinicalStatus":"resolved","code":{"coding":[{"code":"284549007","display":"Laceration of hand","system":"http://snomed.info/sct"}],"text":"Laceration of hand"},"context":{"reference":"Encounter/dd1f80ff-0a95-4548-b62c-1d8a683f17f7"},"id":"8aae8a98-d4c9-4d64-9c52-7b61e0389087","meta":{"lastUpdated":"2019-04-09T12:03:32.375144+00:00","versionId":"MTU1NDgxMTQxMjM3NTE0NDAwMA"},"onsetDateTime":"2014-09-25T07:57:23-04:00","resourceType":"Condition","subject":{"reference":"Patient/0accf4d2-156a-425c-8400-33c073a0f661"},"verificationStatus":"confirmed"}},{"resource":{"assertedDate":"2019-01-07T06:57:23-05:00","clinicalStatus":"active","code":{"coding":[{"code":"10509002","display":"Acute bronchitis (disorder)","system":"http://snomed.info/sct"}],"text":"Acute bronchitis (disorder)"},"context":{"reference":"Encounter/68ea31fb-dba8-4fdf-b79f-2125ab326cbe"},"id":"9a5afc65-90c4-4a66-af59-bc4b260a39b4","meta":{"lastUpdated":"2019-04-09T12:03:37.500601+00:00","versionId":"MTU1NDgxMTQxNzUwMDYwMTAwMA"},"onsetDateTime":"2019-01-07T06:57:23-05:00","resourceType":"Condition","subject":{"reference":"Patient/0accf4d2-156a-425c-8400-33c073a0f661"},"verificationStatus":"confirmed"}},{"resource":{"abatementDateTime":"2001-06-30T07:57:23-04:00","assertedDate":"2001-06-23T07:57:23-04:00","clinicalStatus":"resolved","code":{"coding":[{"code":"10509002","display":"Acute bronchitis (disorder)","system":"http://snomed.info/sct"}],"text":"Acute bronchitis (disorder)"},"context":{"reference":"Encounter/05346ee6-81fb-40c9-9016-ec9a309046df"},"id":"9a97ffaf-2e74-4afc-a8e3-5ea4505a1b76","meta":{"lastUpdated":"2019-04-09T12:03:26.160403+00:00","versionId":"MTU1NDgxMTQwNjE2MDQwMzAwMA"},"onsetDateTime":"2001-06-23T07:57:23-04:00","resourceType":"Condition","subject":{"reference":"Patient/0accf4d2-156a-425c-8400-33c073a0f661"},"verificationStatus":"confirmed"}},{"resource":{"abatementDateTime":"2009-05-05T07:57:23-04:00","assertedDate":"2009-04-21T07:57:23-04:00","clinicalStatus":"resolved","code":{"coding":[{"code":"10509002","display":"Acute bronchitis (disorder)","system":"http://snomed.info/sct"}],"text":"Acute bronchitis (disorder)"},"context":{"reference":"Encounter/ad8b29e1-4612-4680-84a5-da3cebce6886"},"id":"9fcdde05-2f5d-4289-8eff-475f7bcd0ecf","meta":{"lastUpdated":"2019-04-09T12:03:26.160940+00:00","versionId":"MTU1NDgxMTQwNjE2MDk0MDAwMA"},"onsetDateTime":"2009-04-21T07:57:23-04:00","resourceType":"Condition","subject":{"reference":"Patient/0accf4d2-156a-425c-8400-33c073a0f661"},"verificationStatus":"confirmed"}},{"resource":{"abatementDateTime":"2011-07-12T07:57:23-04:00","assertedDate":"2011-06-21T07:57:23-04:00","clinicalStatus":"resolved","code":{"coding":[{"code":"75498004","display":"Acute bacterial sinusitis (disorder)","system":"http://snomed.info/sct"}],"text":"Acute bacterial sinusitis (disorder)"},"context":{"reference":"Encounter/88a912f0-8104-4592-999f-14be09896a65"},"id":"e3d22c27-872b-4c3b-829e-7bee14821c34","meta":{"lastUpdated":"2019-04-09T12:03:28.267551+00:00","versionId":"MTU1NDgxMTQwODI2NzU1MTAwMA"},"onsetDateTime":"2011-06-21T07:57:23-04:00","resourceType":"Condition","subject":{"reference":"Patient/0accf4d2-156a-425c-8400-33c073a0f661"},"verificationStatus":"confirmed"}},{"resource":{"abatementDateTime":"2013-11-29T06:57:23-05:00","assertedDate":"2013-11-15T06:57:23-05:00","clinicalStatus":"resolved","code":{"coding":[{"code":"283371005","display":"Laceration of forearm","system":"http://snomed.info/sct"}],"text":"Laceration of forearm"},"context":{"reference":"Encounter/4171df32-40e3-465b-ab54-34f2596b5f95"},"id":"ee6028fe-8994-4948-89f6-2d5ffc5b70ab","meta":{"lastUpdated":"2019-04-09T12:03:31.357286+00:00","versionId":"MTU1NDgxMTQxMTM1NzI4NjAwMA"},"onsetDateTime":"2013-11-15T06:57:23-05:00","resourceType":"Condition","subject":{"reference":"Patient/0accf4d2-156a-425c-8400-33c073a0f661"},"verificationStatus":"confirmed"}},{"resource":{"assertedDate":"1988-08-10T07:57:23-04:00","clinicalStatus":"active","code":{"coding":[{"code":"431855005","display":"Chronic kidney disease stage 1 (disorder)","system":"http://snomed.info/sct"}],"text":"Chronic kidney disease stage 1 (disorder)"},"context":{"reference":"Encounter/09e3ed9e-1166-4a11-93c6-216c9a560b90"},"id":"f2907a42-74a4-4976-8698-cd95447a073a","meta":{"lastUpdated":"2019-04-09T12:03:26.160402+00:00","versionId":"MTU1NDgxMTQwNjE2MDQwMjAwMA"},"onsetDateTime":"1988-08-10T07:57:23-04:00","resourceType":"Condition","subject":{"reference":"Patient/0accf4d2-156a-425c-8400-33c073a0f661"},"verificationStatus":"confirmed"}},{"resource":{"code":{"coding":[{"code":"57698-3","display":"Lipid Panel","system":"http://loinc.org"}],"text":"Lipid Panel"},"context":{"reference":"Encounter/698efea4-5011-4a9a-85e2-c3f6dd24ddf1"},"effectiveDateTime":"2014-04-02T07:57:23-04:00","id":"05fc8bda-0f26-48fd-bba9-17cba69fa1d9","issued":"2014-04-02T07:57:23.260-04:00","meta":{"lastUpdated":"2019-04-09T12:03:32.369272+00:00","versionId":"MTU1NDgxMTQxMjM2OTI3MjAwMA"},"resourceType":"DiagnosticReport","result":[{"display":"Total Cholesterol","reference":"Observation/a5b2af92-4446-4aea-9399-6035befaec4f"},{"display":"Triglycerides","reference":"Observation/765b2b83-049d-4fb8-8bf0-e888b22022d4"},{"display":"Low Density Lipoprotein Cholesterol","reference":"Observation/512db51a-a1b4-4910-ae88-86ce76739e85"},{"display":"High Density Lipoprotein Cholesterol","reference":"Observation/b49df063-80b3-416a-946a-b4dcd0aca741"}],"status":"final","subject":{"reference":"Patient/0accf4d2-156a-425c-8400-33c073a0f661"}}},{"resource":{"code":{"coding":[{"code":"57698-3","display":"Lipid Panel","system":"http://loinc.org"}],"text":"Lipid Panel"},"context":{"reference":"Encounter/23df6fcc-4cb0-41ad-8ee5-dc9f35e8f02a"},"effectiveDateTime":"2012-02-01T06:57:23-05:00","id":"0a009b46-59e3-4e04-b87f-811a686ce449","issued":"2012-02-01T06:57:23.260-05:00","meta":{"lastUpdated":"2019-04-09T12:03:28.309797+00:00","versionId":"MTU1NDgxMTQwODMwOTc5NzAwMA"},"resourceType":"DiagnosticReport","result":[{"display":"Total Cholesterol","reference":"Observation/5b1991f9-17bf-4e16-bdf5-9620d8ce0a02"},{"display":"Triglycerides","reference":"Observation/578f0a92-9a0e-4f89-bc4a-673f4156c3a9"},{"display":"Low Density Lipoprotein Cholesterol","reference":"Observation/e0254e1a-c3a8-4172-b238-62b226a0c985"},{"display":"High Density Lipoprotein Cholesterol","reference":"Observation/54f8482d-ec50-4ee2-9a4d-a21e1b4d7174"}],"status":"final","subject":{"reference":"Patient/0accf4d2-156a-425c-8400-33c073a0f661"}}},{"resource":{"code":{"coding":[{"code":"57698-3","display":"Lipid Panel","system":"http://loinc.org"}],"text":"Lipid Panel"},"context":{"reference":"Encounter/dd36d000-5a14-4c69-87d3-04b087ba099e"},"effectiveDateTime":"2014-08-20T07:57:23-04:00","id":"0dfef751-3ec5-42cd-afc9-7356b3e7f4c4","issued":"2014-08-20T07:57:23.260-04:00","meta":{"lastUpdated":"2019-04-09T12:03:32.374734+00:00","versionId":"MTU1NDgxMTQxMjM3NDczNDAwMA"},"resourceType":"DiagnosticReport","result":[{"display":"Total Cholesterol","reference":"Observation/89e0b84f-17c2-485a-988d-bceaeb88262f"},{"display":"Triglycerides","reference":"Observation/9e99219c-dfbe-4f05-bf13-a7d5e4997ab6"},{"display":"Low Density Lipoprotein Cholesterol","reference":"Observation/3a977e10-ebde-4ba6-87cc-559a8d2d2d7e"},{"display":"High Density Lipoprotein Cholesterol","reference":"Observation/f49010f9-2a6d-484f-8eaa-71d94a63e4b2"}],"status":"final","subject":{"reference":"Patient/0accf4d2-156a-425c-8400-33c073a0f661"}}},{"resource":{"code":{"coding":[{"code":"57698-3","display":"Lipid Panel","system":"http://loinc.org"}],"text":"Lipid Panel"},"context":{"reference":"Encounter/6398d4e6-7dea-4133-8e28-64cb5b80c9b1"},"effectiveDateTime":"2016-09-07T07:57:23-04:00","id":"0e64f191-e81e-4d6d-973e-c183d10abc41","issued":"2016-09-07T07:57:23.260-04:00","meta":{"lastUpdated":"2019-04-09T12:03:34.470581+00:00","versionId":"MTU1NDgxMTQxNDQ3MDU4MTAwMA"},"resourceType":"DiagnosticReport","result":[{"display":"Total Cholesterol","reference":"Observation/b4e34367-1708-4b33-b728-a7e4ee368a98"},{"display":"Triglycerides","reference":"Observation/c3b7c91f-0cff-46a0-a293-78b9e2b70f2f"},{"display":"Low Density Lipoprotein Cholesterol","reference":"Observation/1d478166-513b-49f2-8975-7042c04e71dd"},{"display":"High Density Lipoprotein Cholesterol","reference":"Observation/52f81550-7c04-461a-a96f-ded22f7a161d"}],"status":"final","subject":{"reference":"Patient/0accf4d2-156a-425c-8400-33c073a0f661"}}},{"resource":{"code":{"coding":[{"code":"57698-3","display":"Lipid Panel","system":"http://loinc.org"}],"text":"Lipid Panel"},"context":{"reference":"Encounter/82b893df-807a-4031-ad10-abbbb2c4e7db"},"effectiveDateTime":"2018-07-04T07:57:23-04:00","id":"0f57b9cb-8089-4f71-b212-46ae65d2e5ee","issued":"2018-07-04T07:57:23.260-04:00","meta":{"lastUpdated":"2019-04-09T12:03:37.503868+00:00","versionId":"MTU1NDgxMTQxNzUwMzg2ODAwMA"},"resourceType":"DiagnosticReport","result":[{"display":"Total Cholesterol","reference":"Observation/f0957db9-e6a6-4293-aebe-3bb242c7bc4b"},{"display":"Triglycerides","reference":"Observation/e3eb4dce-95c4-4842-9ca2-ad5108e34b9d"},{"display":"Low Density Lipoprotein Cholesterol","reference":"Observation/7714b779-767d-4040-b28c-3850da8c4e5b"},{"display":"High Density Lipoprotein Cholesterol","reference":"Observation/baeed7c6-b781-44da-be06-7c6162200d90"}],"status":"final","subject":{"reference":"Patient/0accf4d2-156a-425c-8400-33c073a0f661"}}},{"resource":{"code":{"coding":[{"code":"57698-3","display":"Lipid Panel","system":"http://loinc.org"}],"text":"Lipid Panel"},"context":{"reference":"Encounter/d8e5cd14-488a-4d6f-a12a-40c60610b517"},"effectiveDateTime":"2013-08-07T07:57:23-04:00","id":"0fd7c5fd-1eee-4faa-8cfe-ce998b5739d9","issued":"2013-08-07T07:57:23.260-04:00","meta":{"lastUpdated":"2019-04-09T12:03:30.341117+00:00","versionId":"MTU1NDgxMTQxMDM0MTExNzAwMA"},"resourceType":"DiagnosticReport","result":[{"display":"Total Cholesterol","reference":"Observation/a34b3ced-a539-4069-81c0-54890fc7666d"},{"display":"Triglycerides","reference":"Observation/01278b37-bc3c-4673-bc1f-7796cc182d6e"},{"display":"Low Density Lipoprotein Cholesterol","reference":"Observation/42d0c9a4-74a6-4afd-88b9-74870f48d9b5"},{"display":"High Density Lipoprotein Cholesterol","reference":"Observation/535f33c8-85c2-4314-b378-208293cf6194"}],"status":"final","subject":{"reference":"Patient/0accf4d2-156a-425c-8400-33c073a0f661"}}},{"resource":{"code":{"coding":[{"code":"51990-0","display":"Basic Metabolic Panel","system":"http://loinc.org"}],"text":"Basic Metabolic Panel"},"context":{"reference":"Encounter/2ba948d5-ca16-4c1a-a5f6-e45abe828730"},"effectiveDateTime":"2013-10-30T07:57:23-04:00","id":"1430ca41-3763-4c24-b3ea-9f398d5c81fd","issued":"2013-10-30T07:57:23.260-04:00","meta":{"lastUpdated":"2019-04-09T12:03:30.363062+00:00","versionId":"MTU1NDgxMTQxMDM2MzA2MjAwMA"},"resourceType":"DiagnosticReport","result":[{"display":"Glucose","reference":"Observation/70f990f5-30e5-4ecd-aced-e7ca54bceb48"},{"display":"Urea Nitrogen","reference":"Observation/3163625f-cfa3-489d-9135-32db57b830a0"},{"display":"Creatinine","reference":"Observation/f660e3ce-691d-440c-af68-1738a33ca27f"},{"display":"Calcium","reference":"Observation/ded804ed-b425-46d0-b62b-dd9c521324ba"},{"display":"Sodium","reference":"Observation/89c55aa2-3bc3-4a38-9b19-2f4427dfa7ec"},{"display":"Potassium","reference":"Observation/729aa57c-fd8a-4cab-9b83-421e442f7323"},{"display":"Chloride","reference":"Observation/9e541860-5147-46ae-bc63-d4304985facd"},{"display":"Carbon Dioxide","reference":"Observation/f27c7a5b-4d74-4c98-a3cd-0221f8f953be"}],"status":"final","subject":{"reference":"Patient/0accf4d2-156a-425c-8400-33c073a0f661"}}},{"resource":{"code":{"coding":[{"code":"57698-3","display":"Lipid Panel","system":"http://loinc.org"}],"text":"Lipid Panel"},"context":{"reference":"Encounter/e552d549-c916-493a-b70f-986636288805"},"effectiveDateTime":"2015-05-27T07:57:23-04:00","id":"164f3b84-4c4e-4a4f-96b9-48e5950c00c9","issued":"2015-05-27T07:57:23.260-04:00","meta":{"lastUpdated":"2019-04-09T12:03:33.414988+00:00","versionId":"MTU1NDgxMTQxMzQxNDk4ODAwMA"},"resourceType":"DiagnosticReport","result":[{"display":"Total Cholesterol","reference":"Observation/95d28602-60d9-4c15-9948-a22e1def9f48"},{"display":"Triglycerides","reference":"Observation/4209bb56-236b-4fad-959c-73fec53f536e"},{"display":"Low Density Lipoprotein Cholesterol","reference":"Observation/28ecc3d2-0ada-4e52-b90a-e6cdd96703dc"},{"display":"High Density Lipoprotein Cholesterol","reference":"Observation/107e7910-ca1e-4f86-bf40-00d82c478fdc"}],"status":"final","subject":{"reference":"Patient/0accf4d2-156a-425c-8400-33c073a0f661"}}},{"resource":{"code":{"coding":[{"code":"51990-0","display":"Basic Metabolic Panel","system":"http://loinc.org"}],"text":"Basic Metabolic Panel"},"context":{"reference":"Encounter/4329fd2d-4269-4520-b0aa-e30ec954cb43"},"effectiveDateTime":"2017-01-18T06:57:23-05:00","id":"172c3f7e-c64c-49a0-9f86-6d8eb583d543","issued":"2017-01-18T06:57:23.260-05:00","meta":{"lastUpdated":"2019-04-09T12:03:35.484942+00:00","versionId":"MTU1NDgxMTQxNTQ4NDk0MjAwMA"},"resourceType":"DiagnosticReport","result":[{"display":"Glucose","reference":"Observation/2e84d704-6169-4bc4-83ba-36e6b460ecb9"},{"display":"Urea Nitrogen","reference":"Observation/2cd9f00b-d85f-42e1-ad49-ad06a906f1b7"},{"display":"Creatinine","reference":"Observation/859f20ca-3e63-45c9-bc08-b1730e14bb21"},{"display":"Calcium","reference":"Observation/cae6a091-2d39-46b0-9b81-746cf54e59b8"},{"display":"Sodium","reference":"Observation/5f129a9a-dd8a-4703-8b17-a9c48d5daf95"},{"display":"Potassium","reference":"Observation/b7e810b8-2c46-4fff-bae7-f2a737c7e94e"},{"display":"Chloride","reference":"Observation/93c0cb22-3f86-4b69-8caf-ccf14435a612"},{"display":"Carbon Dioxide","reference":"Observation/3d3295b3-9395-438e-9355-e0bcb515ed0e"}],"status":"final","subject":{"reference":"Patient/0accf4d2-156a-425c-8400-33c073a0f661"}}}],"link":[{"url":"https://syntheticmass.mitre.org/v1/fhir/Patient/0accf4d2-156a-425c-8400-33c073a0f661/$everything?_count=100&page_token=CoIBcHJvamVjdHMvc3ludGhlYS9sb2NhdGlvbnMvdXMtY2VudHJhbDEvZGF0YXNldHMvMjAxOTAyL2ZoaXJTdG9yZXMvc3ludGhldGljLW1hc3MvZmhpci9QYXRpZW50LzBhY2NmNGQyLTE1NmEtNDI1Yy04NDAwLTMzYzA3M2EwZjY2MQ%3D%3D","relation":"previous"},{"url":"https://syntheticmass.mitre.org/v1/fhir/Patient/0accf4d2-156a-425c-8400-33c073a0f661/$everything?_count=100&page_token=CoIBcHJvamVjdHMvc3ludGhlYS9sb2NhdGlvbnMvdXMtY2VudHJhbDEvZGF0YXNldHMvMjAxOTAyL2ZoaXJTdG9yZXMvc3ludGhldGljLW1hc3MvZmhpci9QYXRpZW50LzBhY2NmNGQyLTE1NmEtNDI1Yy04NDAwLTMzYzA3M2EwZjY2MSDIAQ%3D%3D","relation":"next"}],"total":1893}
