{"resourceType":"Bundle","type":"searchset","entry":[{"resource":{"code":{"coding":[{"code":"57698-3","display":"Lipid Panel","system":"http://loinc.org"}],"text":"Lipid Panel"},"context":{"reference":"Encounter/18173b3f-27d9-4de1-9c8c-ee1a0ea31387"},"effectiveDateTime":"2012-10-10T07:57:23-04:00","id":"e895fdd4-424b-48a9-a4df-fc123be28e09","issued":"2012-10-10T07:57:23.260-04:00","meta":{"lastUpdated":"2019-04-09T12:03:29.364133+00:00","versionId":"MTU1NDgxMTQwOTM2NDEzMzAwMA"},"resourceType":"DiagnosticReport","result":[{"display":"Total Cholesterol","reference":"Observation/5da3f9ef-9133-4569-be7d-5f777acfdb35"},{"display":"Triglycerides","reference":"Observation/ccb226e3-21e8-457c-9497-a40be1cf63b9"},{"display":"Low Density Lipoprotein Cholesterol","reference":"Observation/c25e81c4-e034-4c70-befb-b14ebe3f47c2"},{"display":"High Density Lipoprotein Cholesterol","reference":"Observation/fd49b262-d297-487f-b049-885d682c3e5b"}],"status":"final","subject":{"reference":"Patient/0accf4d2-156a-425c-8400-33c073a0f661"}}},{"resource":{"code":{"coding":[{"code":"51990-0","display":"Basic Metabolic Panel","system":"http://loinc.org"}],"text":"Basic Metabolic Panel"},"context":{"reference":"Encounter/a0cf96ce-6527-4033-9f43-741b7643937a"},"effectiveDateTime":"2017-04-12T07:57:23-04:00","id":"ea105688-1e8b-41be-8f96-54b807509a50","issued":"2017-04-12T07:57:23.260-04:00","meta":{"lastUpdated":"2019-04-09T12:03:35.490303+00:00","versionId":"MTU1NDgxMTQxNTQ5MDMwMzAwMA"},"resourceType":"DiagnosticReport","result":[{"display":"Glucose","reference":"Observation/a1100977-65a5-4876-bbd4-61d0846aec04"},{"display":"Urea Nitrogen","reference":"Observation/bb2263ba-5e17-45ef-b695-7c5a6fae3453"},{"display":"Creatinine","reference":"Observation/41f1c658-4612-4468-b90e-42f6923953bb"},{"display":"Calcium","reference":"Observation/bb22682c-3eb5-4402-a5dd-260b5392937f"},{"display":"Sodium","reference":"Observation/be31e17f-9a6b-44f8-9b51-94c96e83e3e9"},{"display":"Potassium","reference":"Observation/1fcbf761-6993-4af8-a3e3-d1f496bbc738"},{"display":"Chloride","reference":"Observation/69cbb448-4c58-4df8-a508-c542843c8196"},{"display":"Carbon Dioxide","reference":"Observation/62bb5c20-a613-40a5-812f-8b9acad5f1b0"}],"status":"final","subject":{"reference":"Patient/0accf4d2-156a-425c-8400-33c073a0f661"}}},{"resource":{"code":{"coding":[{"code":"51990-0","display":"Basic Metabolic Panel","system":"http://loinc.org"}],"text":"Basic Metabolic Panel"},"context":{"reference":"Encounter/ee3aa1cf-23bd-4b5d-97c1-4072b885a338"},"effectiveDateTime":"2011-12-07T06:57:23-05:00","id":"f0968964-4a7e-4730-9c3d-40698e28fdc9","issued":"2011-12-07T06:57:23.260-05:00","meta":{"lastUpdated":"2019-04-09T12:03:28.278762+00:00","versionId":"MTU1NDgxMTQwODI3ODc2MjAwMA"},"resourceType":"DiagnosticReport","result":[{"display":"Glucose","reference":"Observation/9d24eb10-a4c6-4eec-ae0e-4a8e27e1c30f"},{"display":"Urea Nitrogen","reference":"Observation/dfe5f2d8-75ba-409c-9d68-0c5f47d498a0"},{"display":"Creatinine","reference":"Observation/0b7def78-b54a-4589-9ac1-ed3478928df5"},{"display":"Calcium","reference":"Observation/6ce1b8c8-d253-4ff3-a45f-4f0f55e71ace"},{"display":"Sodium","reference":"Observation/63618657-2159-459d-9511-6852c3a03727"},{"display":"Potassium","reference":"Observation/7d7131c7-e047-4ecc-8849-93682e815085"},{"display":"Chloride","reference":"Observation/b5ba9603-4e90-48d7-ba20-fe128030bb27"},{"display":"Carbon Dioxide","reference":"Observation/6d2a3d16-6ccd-404d-ab07-65773ed07d57"}],"status":"final","subject":{"reference":"Patient/0accf4d2-156a-425c-8400-33c073a0f661"}}},{"resource":{"code":{"coding":[{"code":"57698-3","display":"Lipid Panel","system":"http://loinc.org"}],"text":"Lipid Panel"},"context":{"reference":"Encounter/a0cf96ce-6527-4033-9f43-741b7643937a"},"effectiveDateTime":"2017-04-12T07:57:23-04:00","id":"f0ae3da8-aa7b-4776-9a06-6173041c7b39","issued":"2017-04-12T07:57:23.260-04:00","meta":{"lastUpdated":"2019-04-09T12:03:35.480702+00:00","versionId":"MTU1NDgxMTQxNTQ4MDcwMjAwMA"},"resourceType":"DiagnosticReport","result":[{"display":"Total Cholesterol","reference":"Observation/c584b068-a7b9-4d20-8958-f9525cb29820"},{"display":"Triglycerides","reference":"Observation/42b91ccc-14a8-412f-afdd-3f265e9d9c8e"},{"display":"Low Density Lipoprotein Cholesterol","reference":"Observation/34002499-edfd-497c-84f9-25a23daea6bb"},{"display":"High Density Lipoprotein Cholesterol","reference":"Observation/171ebf34-702d-49bd-a7d7-2b0073673375"}],"status":"final","subject":{"reference":"Patient/0accf4d2-156a-425c-8400-33c073a0f661"}}},{"resource":{"code":{"coding":[{"code":"57698-3","display":"Lipid Panel","system":"http://loinc.org"}],"text":"Lipid Panel"},"context":{"reference":"Encounter/0558c0ab-d110-490b-8586-65ce3adf7dc6"},"effectiveDateTime":"2013-09-25T07:57:23-04:00","id":"f175128e-dc93-46e9-9beb-b9a10bb6fa1b","issued":"2013-09-25T07:57:23.260-04:00","meta":{"lastUpdated":"2019-04-09T12:03:30.334875+00:00","versionId":"MTU1NDgxMTQxMDMzNDg3NTAwMA"},"resourceType":"DiagnosticReport","result":[{"display":"Total Cholesterol","reference":"Observation/ce634631-e5c8-4f00-a11f-4c93152423bd"},{"display":"Triglycerides","reference":"Observation/c113779f-79e7-49cd-a4c7-02149b6902f9"},{"display":"Low Density Lipoprotein Cholesterol","reference":"Observation/08737048-24ab-4c9e-8f0a-80b8a7356776"},{"display":"High Density Lipoprotein Cholesterol","reference":"Observation/e0518d31-54a4-4e82-aaba-6dac3393d1ff"}],"status":"final","subject":{"reference":"Patient/0accf4d2-156a-425c-8400-33c073a0f661"}}},{"resource":{"code":{"coding":[{"code":"51990-0","display":"Basic Metabolic Panel","system":"http://loinc.org"}],"text":"Basic Metabolic Panel"},"context":{"reference":"Encounter/ff80e9b9-c9d4-4d51-9a0a-f2757518e1b7"},"effectiveDateTime":"2012-11-07T06:57:23-05:00","id":"fbc6a64a-bec9-4cae-a68e-88aa587abaed","issued":"2012-11-07T06:57:23.260-05:00","meta":{"lastUpdated":"2019-04-09T12:03:29.379379+00:00","versionId":"MTU1NDgxMTQwOTM3OTM3OTAwMA"},"resourceType":"DiagnosticReport","result":[{"display":"Glucose","reference":"Observation/58184262-e5fa-4b3a-be3a-ed2f261a26b7"},{"display":"Urea Nitrogen","reference":"Observation/45ef8706-2259-436b-9118-39fb3f70e44e"},{"display":"Creatinine","reference":"Observation/9177b29f-d6e5-4d09-b31b-aab1b0368691"},{"display":"Calcium","reference":"Observation/22ae33ce-8ad9-4a58-9367-07653b2ad33b"},{"display":"Sodium","reference":"Observation/f94b900c-445a-4dfd-84a8-100b553fe491"},{"display":"Potassium","reference":"Observation/f9992597-9cf4-4dea-b07d-d98a34b224b2"},{"display":"Chloride","reference":"Observation/ea1ab262-938d-4d8e-95bb-c66c6d2d4b91"},{"display":"Carbon Dioxide","reference":"Observation/710bd475-f3b5-48d3-b31c-307cd0687f60"}],"status":"final","subject":{"reference":"Patient/0accf4d2-156a-425c-8400-33c073a0f661"}}},{"resource":{"code":{"coding":[{"code":"57698-3","display":"Lipid Panel","system":"http://loinc.org"}],"text":"Lipid Panel"},"context":{"reference":"Encounter/227abca1-1137-4585-9b6c-42b05dd22516"},"effectiveDateTime":"2017-11-01T07:57:23-04:00","id":"fbf6ba64-a1af-4608-b96a-126b2e163db0","issued":"2017-11-01T07:57:23.260-04:00","meta":{"lastUpdated":"2019-04-09T12:03:36.491067+00:00","versionId":"MTU1NDgxMTQxNjQ5MTA2NzAwMA"},"resourceType":"DiagnosticReport","result":[{"display":"Total Cholesterol","reference":"Observation/0117d2a6-08b6-4a00-818c-e16a1a8a0df4"},{"display":"Triglycerides","reference":"Observation/b0303874-450e-43ad-b5fe-c3d6b0d41044"},{"display":"Low Density Lipoprotein Cholesterol","reference":"Observation/fce94574-4ca8-4c5f-a28e-a21a5e49f919"},{"display":"High Density Lipoprotein Cholesterol","reference":"Observation/5406d853-3d2a-4737-9851-f75dc0db5718"}],"status":"final","subject":{"reference":"Patient/0accf4d2-156a-425c-8400-33c073a0f661"}}},{"resource":{"class":{"code":"URGENTCARE"},"id":"0147215b-7200-494b-8546-6fbbae2ffa36","meta":{"lastUpdated":"2019-04-09T12:03:35.481301+00:00","versionId":"MTU1NDgxMTQxNTQ4MTMwMTAwMA"},"participant":[{"individual":{"reference":"Practitioner/4e75658e-2496-4900-a2a4-e8aa600269ed"}}],"period":{"end":"2017-04-05T08:12:23-04:00","start":"2017-04-05T07:57:23-04:00"},"resourceType":"Encounter","serviceProvider":{"reference":"Organization/057e5b30-6566-4cff-80cc-1e899ab80bae"},"status":"finished","subject":{"reference":"Patient/0accf4d2-156a-425c-8400-33c073a0f661"},"type":[{"coding":[{"code":"371883000","display":"Outpatient procedure (procedure)","system":"http://snomed.info/sct"}],"text":"Outpatient procedure (procedure)"}]}},{"resource":{"class":{"code":"ambulatory"},"id":"05346ee6-81fb-40c9-9016-ec9a309046df","meta":{"lastUpdated":"2019-04-09T12:03:26.160174+00:00","versionId":"MTU1NDgxMTQwNjE2MDE3NDAwMA"},"participant":[{"individual":{"reference":"Practitioner/26c419ce-a137-417b-90ef-8da89cacc8e3"}}],"period":{"end":"2001-06-23T08:29:23-04:00","start":"2001-06-23T07:57:23-04:00"},"reason":[{"coding":[{"code":"10509002","display":"Acute bronchitis (disorder)","system":"http://snomed.info/sct"}]}],"resourceType":"Encounter","serviceProvider":{"reference":"Organization/3c1a6594-2deb-4ff5-972a-a209361ec3eb"},"status":"finished","subject":{"reference":"Patient/0accf4d2-156a-425c-8400-33c073a0f661"},"type":[{"coding":[{"code":"185345009","display":"Encounter for symptom","system":"http://snomed.info/sct"}],"text":"Encounter for symptom"}]}},{"resource":{"class":{"code":"WELLNESS"},"id":"0558c0ab-d110-490b-8586-65ce3adf7dc6","meta":{"lastUpdated":"2019-04-09T12:03:30.340040+00:00","versionId":"MTU1NDgxMTQxMDM0MDA0MDAwMA"},"participant":[{"individual":{"reference":"Practitioner/26c419ce-a137-417b-90ef-8da89cacc8e3"}}],"period":{"end":"2013-09-25T08:27:23-04:00","start":"2013-09-25T07:57:23-04:00"},"resourceType":"Encounter","serviceProvider":{"reference":"Organization/3c1a6594-2deb-4ff5-972a-a209361ec3eb"},"status":"finished","subject":{"reference":"Patient/0accf4d2-156a-425c-8400-33c073a0f661"},"type":[{"coding":[{"code":"185349003","display":"Encounter for check up (procedure)","system":"http://snomed.info/sct"}],"text":"Encounter for check up (procedure)"}]}},{"resource":{"class":{"code":"EMERGENCY"},"id":"06d4f680-f6c6-4a4a-b292-d59d463d07b2","meta":{"lastUpdated":"2019-04-09T12:03:28.271859+00:00","versionId":"MTU1NDgxMTQwODI3MTg1OTAwMA"},"participant":[{"individual":{"reference":"Practitioner/26c419ce-a137-417b-90ef-8da89cacc8e3"}}],"period":{"end":"2011-07-06T08:57:23-04:00","start":"2011-07-06T07:57:23-04:00"},"resourceType":"Encounter","serviceProvider":{"reference":"Organization/3c1a6594-2deb-4ff5-972a-a209361ec3eb"},"status":"finished","subject":{"reference":"Patient/0accf4d2-156a-425c-8400-33c073a0f661"},"type":[{"coding":[{"code":"50849002","display":"Emergency Encounter","system":"http://snomed.info/sct"}],"text":"Emergency Encounter"}]}},{"resource":{"class":{"code":"WELLNESS"},"id":"09e3ed9e-1166-4a11-93c6-216c9a560b90","meta":{"lastUpdated":"2019-04-09T12:03:26.160171+00:00","versionId":"MTU1NDgxMTQwNjE2MDE3MTAwMA"},"participant":[{"individual":{"reference":"Practitioner/26c419ce-a137-417b-90ef-8da89cacc8e3"}}],"period":{"end":"1988-08-10T08:12:23-04:00","start":"1988-08-10T07:57:23-04:00"},"resourceType":"Encounter","serviceProvider":{"reference":"Organization/3c1a6594-2deb-4ff5-972a-a209361ec3eb"},"status":"finished","subject":{"reference":"Patient/0accf4d2-156a-425c-8400-33c073a0f661"},"type":[{"coding":[{"code":"185349003","display":"Encounter for check up (procedure)","system":"http://snomed.info/sct"}],"text":"Encounter for check up (procedure)"}]}},{"resource":{"class":{"code":"URGENTCARE"},"id":"0b49d46a-38d3-4944-8c49-7b24eea8764e","meta":{"lastUpdated":"2019-04-09T12:03:33.411632+00:00","versionId":"MTU1NDgxMTQxMzQxMTYzMjAwMA"},"participant":[{"individual":{"reference":"Practitioner/4e75658e-2496-4900-a2a4-e8aa600269ed"}}],"period":{"end":"2015-03-18T08:12:23-04:00","start":"2015-03-18T07:57:23-04:00"},"resourceType":"Encounter","serviceProvider":{"reference":"Organization/057e5b30-6566-4cff-80cc-1e899ab80bae"},"status":"finished","subject":{"reference":"Patient/0accf4d2-156a-425c-8400-33c073a0f661"},"type":[{"coding":[{"code":"371883000","display":"Outpatient procedure (procedure)","system":"http://snomed.info/sct"}],"text":"Outpatient procedure (procedure)"}]}},{"resource":{"class":{"code":"URGENTCARE"},"id":"0b9f1811-73a9-42dd-87b3-c69ba74d674d","meta":{"lastUpdated":"2019-04-09T12:03:34.448542+00:00","versionId":"MTU1NDgxMTQxNDQ0ODU0MjAwMA"},"participant":[{"individual":{"reference":"Practitioner/4e75658e-2496-4900-a2a4-e8aa600269ed"}}],"period":{"end":"2016-08-10T08:12:23-04:00","start":"2016-08-10T07:57:23-04:00"},"resourceType":"Encounter","serviceProvider":{"reference":"Organization/057e5b30-6566-4cff-80cc-1e899ab80bae"},"status":"finished","subject":{"reference":"Patient/0accf4d2-156a-425c-8400-33c073a0f661"},"type":[{"coding":[{"code":"371883000","display":"Outpatient procedure (procedure)","system":"http://snomed.info/sct"}],"text":"Outpatient procedure (procedure)"}]}},{"resource":{"class":{"code":"WELLNESS"},"id":"0e676ff4-a879-44d9-8eca-fd300a458868","meta":{"lastUpdated":"2019-04-09T12:03:27.220184+00:00","versionId":"MTU1NDgxMTQwNzIyMDE4NDAwMA"},"participant":[{"individual":{"reference":"Practitioner/26c419ce-a137-417b-90ef-8da89cacc8e3"}}],"period":{"end":"2010-10-20T08:27:23-04:00","start":"2010-10-20T07:57:23-04:00"},"resourceType":"Encounter","serviceProvider":{"reference":"Organization/3c1a6594-2deb-4ff5-972a-a209361ec3eb"},"status":"finished","subject":{"reference":"Patient/0accf4d2-156a-425c-8400-33c073a0f661"},"type":[{"coding":[{"code":"185349003","display":"Encounter for check up (procedure)","system":"http://snomed.info/sct"}],"text":"Encounter for check up (procedure)"}]}},{"resource":{"class":{"code":"WELLNESS"},"id":"0f718cf3-dd89-4070-89c7-f970c1b8edde","meta":{"lastUpdated":"2019-04-09T12:03:31.373057+00:00","versionId":"MTU1NDgxMTQxMTM3MzA1NzAwMA"},"participant":[{"individual":{"reference":"Practitioner/26c419ce-a137-417b-90ef-8da89cacc8e3"}}],"period":{"end":"2014-01-29T07:27:23-05:00","start":"2014-01-29T06:57:23-05:00"},"resourceType":"Encounter","serviceProvider":{"reference":"Organization/3c1a6594-2deb-4ff5-972a-a209361ec3eb"},"status":"finished","subject":{"reference":"Patient/0accf4d2-156a-425c-8400-33c073a0f661"},"type":[{"coding":[{"code":"185349003","display":"Encounter for check up (procedure)","system":"http://snomed.info/sct"}],"text":"Encounter for check up (procedure)"}]}},{"resource":{"class":{"code":"WELLNESS"},"id":"12731c13-407e-4044-9890-ee8f09033e3b","meta":{"lastUpdated":"2019-04-09T12:03:26.193282+00:00","versionId":"MTU1NDgxMTQwNjE5MzI4MjAwMA"},"participant":[{"individual":{"reference":"Practitioner/26c419ce-a137-417b-90ef-8da89cacc8e3"}}],"period":{"end":"2009-11-18T07:12:23-05:00","start":"2009-11-18T06:57:23-05:00"},"resourceType":"Encounter","serviceProvider":{"reference":"Organization/3c1a6594-2deb-4ff5-972a-a209361ec3eb"},"status":"finished","subject":{"reference":"Patient/0accf4d2-156a-425c-8400-33c073a0f661"},"type":[{"coding":[{"code":"185349003","display":"Encounter for check up (procedure)","system":"http://snomed.info/sct"}],"text":"Encounter for check up (procedure)"}]}},{"resource":{"class":{"code":"WELLNESS"},"id":"13b2fe86-debb-487d-ae69-c2b020f80f2c","meta":{"lastUpdated":"2019-04-09T12:03:32.372511+00:00","versionId":"MTU1NDgxMTQxMjM3MjUxMTAwMA"},"participant":[{"individual":{"reference":"Practitioner/26c419ce-a137-417b-90ef-8da89cacc8e3"}}],"period":{"end":"2014-10-29T08:27:23-04:00","start":"2014-10-29T07:57:23-04:00"},"resourceType":"Encounter","serviceProvider":{"reference":"Organization/3c1a6594-2deb-4ff5-972a-a209361ec3eb"},"status":"finished","subject":{"reference":"Patient/0accf4d2-156a-425c-8400-33c073a0f661"},"type":[{"coding":[{"code":"185349003","display":"Encounter for check up (procedure)","system":"http://snomed.info/sct"}],"text":"Encounter for check up (procedure)"}]}},{"resource":{"class":{"code":"URGENTCARE"},"id":"14b8cf68-20ab-430a-930e-6f79be75b87f","meta":{"lastUpdated":"2019-04-09T12:03:35.484698+00:00","versionId":"MTU1NDgxMTQxNTQ4NDY5ODAwMA"},"participant":[{"individual":{"reference":"Practitioner/4e75658e-2496-4900-a2a4-e8aa600269ed"}}],"period":{"end":"2017-02-08T07:12:23-05:00","start":"2017-02-08T06:57:23-05:00"},"resourceType":"Encounter","serviceProvider":{"reference":"Organization/057e5b30-6566-4cff-80cc-1e899ab80bae"},"status":"finished","subject":{"reference":"Patient/0accf4d2-156a-425c-8400-33c073a0f661"},"type":[{"coding":[{"code":"371883000","display":"Outpatient procedure (procedure)","system":"http://snomed.info/sct"}],"text":"Outpatient procedure (procedure)"}]}},{"resource":{"class":{"code":"URGENTCARE"},"id":"15a0ecd4-f1d5-449e-843e-1f1995a26f3d","meta":{"lastUpdated":"2019-04-09T12:03:29.375801+00:00","versionId":"MTU1NDgxMTQwOTM3NTgwMTAwMA"},"participant":[{"individual":{"reference":"Practitioner/4e75658e-2496-4900-a2a4-e8aa600269ed"}}],"period":{"end":"2012-11-28T07:12:23-05:00","start":"2012-11-28T06:57:23-05:00"},"resourceType":"Encounter","serviceProvider":{"reference":"Organization/057e5b30-6566-4cff-80cc-1e899ab80bae"},"status":"finished","subject":{"reference":"Patient/0accf4d2-156a-425c-8400-33c073a0f661"},"type":[{"coding":[{"code":"371883000","display":"Outpatient procedure (procedure)","system":"http://snomed.info/sct"}],"text":"Outpatient procedure (procedure)"}]}},{"resource":{"class":{"code":"URGENTCARE"},"id":"15a9424a-cb9f-4319-b07b-2a39f83bab3a","meta":{"lastUpdated":"2019-04-09T12:03:30.337589+00:00","versionId":"MTU1NDgxMTQxMDMzNzU4OTAwMA"},"participant":[{"individual":{"reference":"Practitioner/4e75658e-2496-4900-a2a4-e8aa600269ed"}}],"period":{"end":"2013-06-26T08:12:23-04:00","start":"2013-06-26T07:57:23-04:00"},"resourceType":"Encounter","serviceProvider":{"reference":"Organization/057e5b30-6566-4cff-80cc-1e899ab80bae"},"status":"finished","subject":{"reference":"Patient/0accf4d2-156a-425c-8400-33c073a0f661"},"type":[{"coding":[{"code":"371883000","display":"Outpatient procedure (procedure)","system":"http://snomed.info/sct"}],"text":"Outpatient procedure (procedure)"}]}},{"resource":{"class":{"code":"WELLNESS"},"id":"18173b3f-27d9-4de1-9c8c-ee1a0ea31387","meta":{"lastUpdated":"2019-04-09T12:03:29.350918+00:00","versionId":"MTU1NDgxMTQwOTM1MDkxODAwMA"},"participant":[{"individual":{"reference":"Practitioner/26c419ce-a137-417b-90ef-8da89cacc8e3"}}],"period":{"end":"2012-10-10T08:27:23-04:00","start":"2012-10-10T07:57:23-04:00"},"resourceType":"Encounter","serviceProvider":{"reference":"Organization/3c1a6594-2deb-4ff5-972a-a209361ec3eb"},"status":"finished","subject":{"reference":"Patient/0accf4d2-156a-425c-8400-33c073a0f661"},"type":[{"coding":[{"code":"185349003","display":"Encounter for check up (procedure)","system":"http://snomed.info/sct"}],"text":"Encounter for check up (procedure)"}]}},{"resource":{"class":{"code":"URGENTCARE"},"id":"1aa5418a-4937-42b8-a236-cf442abec7af","meta":{"lastUpdated":"2019-04-09T12:03:31.365339+00:00","versionId":"MTU1NDgxMTQxMTM2NTMzOTAwMA"},"participant":[{"individual":{"reference":"Practitioner/4e75658e-2496-4900-a2a4-e8aa600269ed"}}],"period":{"end":"2014-01-22T07:12:23-05:00","start":"2014-01-22T06:57:23-05:00"},"resourceType":"Encounter","serviceProvider":{"reference":"Organization/057e5b30-6566-4cff-80cc-1e899ab80bae"},"status":"finished","subject":{"reference":"Patient/0accf4d2-156a-425c-8400-33c073a0f661"},"type":[{"coding":[{"code":"371883000","display":"Outpatient procedure (procedure)","system":"http://snomed.info/sct"}],"text":"Outpatient procedure (procedure)"}]}},{"resource":{"class":{"code":"URGENTCARE"},"id":"1b6b8ed8-b963-4e59-9093-9d848338b65a","meta":{"lastUpdated":"2019-04-09T12:03:26.202545+00:00","versionId":"MTU1NDgxMTQwNjIwMjU0NTAwMA"},"participant":[{"individual":{"reference":"Practitioner/4e75658e-2496-4900-a2a4-e8aa600269ed"}}],"period":{"end":"2009-08-19T08:12:23-04:00","start":"2009-08-19T07:57:23-04:00"},"resourceType":"Encounter","serviceProvider":{"reference":"Organization/057e5b30-6566-4cff-80cc-1e899ab80bae"},"status":"finished","subject":{"reference":"Patient/0accf4d2-156a-425c-8400-33c073a0f661"},"type":[{"coding":[{"code":"371883000","display":"Outpatient procedure (procedure)","system":"http://snomed.info/sct"}],"text":"Outpatient procedure (procedure)"}]}},{"resource":{"class":{"code":"URGENTCARE"},"id":"1c8c4a89-fb15-4e80-b747-969c97699089","meta":{"lastUpdated":"2019-04-09T12:03:27.218772+00:00","versionId":"MTU1NDgxMTQwNzIxODc3MjAwMA"},"participant":[{"individual":{"reference":"Practitioner/4e75658e-2496-4900-a2a4-e8aa600269ed"}}],"period":{"end":"2010-06-16T08:12:23-04:00","start":"2010-06-16T07:57:23-04:00"},"resourceType":"Encounter","serviceProvider":{"reference":"Organization/057e5b30-6566-4cff-80cc-1e899ab80bae"},"status":"finished","subject":{"reference":"Patient/0accf4d2-156a-425c-8400-33c073a0f661"},"type":[{"coding":[{"code":"371883000","display":"Outpatient procedure (procedure)","system":"http://snomed.info/sct"}],"text":"Outpatient procedure (procedure)"}]}},{"resource":{"class":{"code":"URGENTCARE"},"id":"1d5a3d68-38ab-49e8-ad36-87801a0bcb09","meta":{"lastUpdated":"2019-04-09T12:03:29.369135+00:00","versionId":"MTU1NDgxMTQwOTM2OTEzNTAwMA"},"participant":[{"individual":{"reference":"Practitioner/4e75658e-2496-4900-a2a4-e8aa600269ed"}}],"period":{"end":"2013-01-30T07:12:23-05:00","start":"2013-01-30T06:57:23-05:00"},"resourceType":"Encounter","serviceProvider":{"reference":"Organization/057e5b30-6566-4cff-80cc-1e899ab80bae"},"status":"finished","subject":{"reference":"Patient/0accf4d2-156a-425c-8400-33c073a0f661"},"type":[{"coding":[{"code":"371883000","display":"Outpatient procedure (procedure)","system":"http://snomed.info/sct"}],"text":"Outpatient procedure (procedure)"}]}},{"resource":{"class":{"code":"URGENTCARE"},"id":"1d5ede03-49fa-4266-b12f-7e8b91464762","meta":{"lastUpdated":"2019-04-09T12:03:28.287409+00:00","versionId":"MTU1NDgxMTQwODI4NzQwOTAwMA"},"participant":[{"individual":{"reference":"Practitioner/4e75658e-2496-4900-a2a4-e8aa600269ed"}}],"period":{"end":"2011-06-15T08:12:23-04:00","start":"2011-06-15T07:57:23-04:00"},"resourceType":"Encounter","serviceProvider":{"reference":"Organization/057e5b30-6566-4cff-80cc-1e899ab80bae"},"status":"finished","subject":{"reference":"Patient/0accf4d2-156a-425c-8400-33c073a0f661"},"type":[{"coding":[{"code":"371883000","display":"Outpatient procedure (procedure)","system":"http://snomed.info/sct"}],"text":"Outpatient procedure (procedure)"}]}},{"resource":{"class":{"code":"EMERGENCY"},"id":"205187ac-f889-4688-9858-0db731e5d173","meta":{"lastUpdated":"2019-04-09T12:03:26.170694+00:00","versionId":"MTU1NDgxMTQwNjE3MDY5NDAwMA"},"participant":[{"individual":{"reference":"Practitioner/26c419ce-a137-417b-90ef-8da89cacc8e3"}}],"period":{"end":"2009-04-29T08:57:23-04:00","start":"2009-04-29T07:57:23-04:00"},"resourceType":"Encounter","serviceProvider":{"reference":"Organization/3c1a6594-2deb-4ff5-972a-a209361ec3eb"},"status":"finished","subject":{"reference":"Patient/0accf4d2-156a-425c-8400-33c073a0f661"},"type":[{"coding":[{"code":"50849002","display":"Emergency Encounter","system":"http://snomed.info/sct"}],"text":"Emergency Encounter"}]}},{"resource":{"class":{"code":"WELLNESS"},"id":"209ee43c-741b-4c56-b7a1-3a2cd5184fa8","meta":{"lastUpdated":"2019-04-09T12:03:31.359689+00:00","versionId":"MTU1NDgxMTQxMTM1OTY4OTAwMA"},"participant":[{"individual":{"reference":"Practitioner/26c419ce-a137-417b-90ef-8da89cacc8e3"}}],"period":{"end":"2013-11-27T07:12:23-05:00","start":"2013-11-27T06:57:23-05:00"},"resourceType":"Encounter","serviceProvider":{"reference":"Organization/3c1a6594-2deb-4ff5-972a-a209361ec3eb"},"status":"finished","subject":{"reference":"Patient/0accf4d2-156a-425c-8400-33c073a0f661"},"type":[{"coding":[{"code":"185349003","display":"Encounter for check up (procedure)","system":"http://snomed.info/sct"}],"text":"Encounter for check up (procedure)"}]}},{"resource":{"class":{"code":"WELLNESS"},"id":"227abca1-1137-4585-9b6c-42b05dd22516","meta":{"lastUpdated":"2019-04-09T12:03:36.494620+00:00","versionId":"MTU1NDgxMTQxNjQ5NDYyMDAwMA"},"participant":[{"individual":{"reference":"Practitioner/26c419ce-a137-417b-90ef-8da89cacc8e3"}}],"period":{"end":"2017-11-01T08:12:23-04:00","start":"2017-11-01T07:57:23-04:00"},"resourceType":"Encounter","serviceProvider":{"reference":"Organization/3c1a6594-2deb-4ff5-972a-a209361ec3eb"},"status":"finished","subject":{"reference":"Patient/0accf4d2-156a-425c-8400-33c073a0f661"},"type":[{"coding":[{"code":"185349003","display":"Encounter for check up (procedure)","system":"http://snomed.info/sct"}],"text":"Encounter for check up (procedure)"}]}},{"resource":{"class":{"code":"URGENTCARE"},"id":"22ea4017-bfa0-49ae-b73b-bb7c370068f8","meta":{"lastUpdated":"2019-04-09T12:03:34.436298+00:00","versionId":"MTU1NDgxMTQxNDQzNjI5ODAwMA"},"participant":[{"individual":{"reference":"Practitioner/4e75658e-2496-4900-a2a4-e8aa600269ed"}}],"period":{"end":"2016-02-03T07:12:23-05:00","start":"2016-02-03T06:57:23-05:00"},"resourceType":"Encounter","serviceProvider":{"reference":"Organization/057e5b30-6566-4cff-80cc-1e899ab80bae"},"status":"finished","subject":{"reference":"Patient/0accf4d2-156a-425c-8400-33c073a0f661"},"type":[{"coding":[{"code":"371883000","display":"Outpatient procedure (procedure)","system":"http://snomed.info/sct"}],"text":"Outpatient procedure (procedure)"}]}},{"resource":{"class":{"code":"WELLNESS"},"id":"23df6fcc-4cb0-41ad-8ee5-dc9f35e8f02a","meta":{"lastUpdated":"2019-04-09T12:03:28.282818+00:00","versionId":"MTU1NDgxMTQwODI4MjgxODAwMA"},"participant":[{"individual":{"reference":"Practitioner/26c419ce-a137-417b-90ef-8da89cacc8e3"}}],"period":{"end":"2012-02-01T07:12:23-05:00","start":"2012-02-01T06:57:23-05:00"},"resourceType":"Encounter","serviceProvider":{"reference":"Organization/3c1a6594-2deb-4ff5-972a-a209361ec3eb"},"status":"finished","subject":{"reference":"Patient/0accf4d2-156a-425c-8400-33c073a0f661"},"type":[{"coding":[{"code":"185349003","display":"Encounter for check up (procedure)","system":"http://snomed.info/sct"}],"text":"Encounter for check up (procedure)"}]}},{"resource":{"class":{"code":"URGENTCARE"},"id":"24957591-2800-44a7-8ef5-1ba6e614ff36","meta":{"lastUpdated":"2019-04-09T12:03:33.395601+00:00","versionId":"MTU1NDgxMTQxMzM5NTYwMTAwMA"},"participant":[{"individual":{"reference":"Practitioner/4e75658e-2496-4900-a2a4-e8aa600269ed"}}],"period":{"end":"2015-08-19T08:12:23-04:00","start":"2015-08-19T07:57:23-04:00"},"resourceType":"Encounter","serviceProvider":{"reference":"Organization/057e5b30-6566-4cff-80cc-1e899ab80bae"},"status":"finished","subject":{"reference":"Patient/0accf4d2-156a-425c-8400-33c073a0f661"},"type":[{"coding":[{"code":"371883000","display":"Outpatient procedure (procedure)","system":"http://snomed.info/sct"}],"text":"Outpatient procedure (procedure)"}]}},{"resource":{"class":{"code":"EMERGENCY"},"id":"259e617a-7eb4-4d3a-8d03-8a93cc17c840","meta":{"lastUpdated":"2019-04-09T12:03:32.407742+00:00","versionId":"MTU1NDgxMTQxMjQwNzc0MjAwMA"},"participant":[{"individual":{"reference":"Practitioner/26c419ce-a137-417b-90ef-8da89cacc8e3"}}],"period":{"end":"2015-02-11T07:57:23-05:00","start":"2015-02-11T06:57:23-05:00"},"resourceType":"Encounter","serviceProvider":{"reference":"Organization/3c1a6594-2deb-4ff5-972a-a209361ec3eb"},"status":"finished","subject":{"reference":"Patient/0accf4d2-156a-425c-8400-33c073a0f661"},"type":[{"coding":[{"code":"50849002","display":"Emergency Encounter","system":"http://snomed.info/sct"}],"text":"Emergency Encounter"}]}},{"resource":{"class":{"code":"WELLNESS"},"id":"262333f2-ba91-4a3a-ad71-f6798a42a25d","meta":{"lastUpdated":"2019-04-09T12:03:34.437207+00:00","versionId":"MTU1NDgxMTQxNDQzNzIwNzAwMA"},"participant":[{"individual":{"reference":"Practitioner/26c419ce-a137-417b-90ef-8da89cacc8e3"}}],"period":{"end":"2016-04-13T08:12:23-04:00","start":"2016-04-13T07:57:23-04:00"},"resourceType":"Encounter","serviceProvider":{"reference":"Organization/3c1a6594-2deb-4ff5-972a-a209361ec3eb"},"status":"finished","subject":{"reference":"Patient/0accf4d2-156a-425c-8400-33c073a0f661"},"type":[{"coding":[{"code":"185349003","display":"Encounter for check up (procedure)","system":"http://snomed.info/sct"}],"text":"Encounter for check up (procedure)"}]}},{"resource":{"class":{"code":"URGENTCARE"},"id":"266b081c-d9b3-4e3d-bc1b-31bd3e7e8d64","meta":{"lastUpdated":"2019-04-09T12:03:34.436631+00:00","versionId":"MTU1NDgxMTQxNDQzNjYzMTAwMA"},"participant":[{"individual":{"reference":"Practitioner/4e75658e-2496-4900-a2a4-e8aa600269ed"}}],"period":{"end":"2016-02-17T07:12:23-05:00","start":"2016-02-17T06:57:23-05:00"},"resourceType":"Encounter","serviceProvider":{"reference":"Organization/057e5b30-6566-4cff-80cc-1e899ab80bae"},"status":"finished","subject":{"reference":"Patient/0accf4d2-156a-425c-8400-33c073a0f661"},"type":[{"coding":[{"code":"371883000","display":"Outpatient procedure (procedure)","system":"http://snomed.info/sct"}],"text":"Outpatient procedure (procedure)"}]}},{"resource":{"class":{"code":"WELLNESS"},"id":"28de273b-98b7-4d52-9901-24d46eed4a08","meta":{"lastUpdated":"2019-04-09T12:03:26.154439+00:00","versionId":"MTU1NDgxMTQwNjE1NDQzOTAwMA"},"participant":[{"individual":{"reference":"Practitioner/26c419ce-a137-417b-90ef-8da89cacc8e3"}}],"period":{"end":"2009-02-18T07:12:23-05:00","start":"2009-02-18T06:57:23-05:00"},"resourceType":"Encounter","serviceProvider":{"reference":"Organization/3c1a6594-2deb-4ff5-972a-a209361ec3eb"},"status":"finished","subject":{"reference":"Patient/0accf4d2-156a-425c-8400-33c073a0f661"},"type":[{"coding":[{"code":"185349003","display":"Encounter for check up (procedure)","system":"http://snomed.info/sct"}],"text":"Encounter for check up (procedure)"}]}},{"resource":{"class":{"code":"URGENTCARE"},"id":"29e1656b-45cd-465f-ad9c-d5f7fe9ac50d","meta":{"lastUpdated":"2019-04-09T12:03:29.353364+00:00","versionId":"MTU1NDgxMTQwOTM1MzM2NDAwMA"},"participant":[{"individual":{"reference":"Practitioner/4e75658e-2496-4900-a2a4-e8aa600269ed"}}],"period":{"end":"2012-07-04T08:12:23-04:00","start":"2012-07-04T07:57:23-04:00"},"resourceType":"Encounter","serviceProvider":{"reference":"Organization/057e5b30-6566-4cff-80cc-1e899ab80bae"},"status":"finished","subject":{"reference":"Patient/0accf4d2-156a-425c-8400-33c073a0f661"},"type":[{"coding":[{"code":"371883000","display":"Outpatient procedure (procedure)","system":"http://snomed.info/sct"}],"text":"Outpatient procedure (procedure)"}]}},{"resource":{"class":{"code":"URGENTCARE"},"id":"2afda5dd-886a-4d84-88f4-66b291279068","meta":{"lastUpdated":"2019-04-09T12:03:35.479338+00:00","versionId":"MTU1NDgxMTQxNTQ3OTMzODAwMA"},"participant":[{"individual":{"reference":"Practitioner/4e75658e-2496-4900-a2a4-e8aa600269ed"}}],"period":{"end":"2017-01-11T07:12:23-05:00","start":"2017-01-11T06:57:23-05:00"},"resourceType":"Encounter","serviceProvider":{"reference":"Organization/057e5b30-6566-4cff-80cc-1e899ab80bae"},"status":"finished","subject":{"reference":"Patient/0accf4d2-156a-425c-8400-33c073a0f661"},"type":[{"coding":[{"code":"371883000","display":"Outpatient procedure (procedure)","system":"http://snomed.info/sct"}],"text":"Outpatient procedure (procedure)"}]}},{"resource":{"class":{"code":"WELLNESS"},"id":"2ba948d5-ca16-4c1a-a5f6-e45abe828730","meta":{"lastUpdated":"2019-04-09T12:03:30.346241+00:00","versionId":"MTU1NDgxMTQxMDM0NjI0MTAwMA"},"participant":[{"individual":{"reference":"Practitioner/26c419ce-a137-417b-90ef-8da89cacc8e3"}}],"period":{"end":"2013-10-30T08:12:23-04:00","start":"2013-10-30T07:57:23-04:00"},"resourceType":"Encounter","serviceProvider":{"reference":"Organization/3c1a6594-2deb-4ff5-972a-a209361ec3eb"},"status":"finished","subject":{"reference":"Patient/0accf4d2-156a-425c-8400-33c073a0f661"},"type":[{"coding":[{"code":"185349003","display":"Encounter for check up (procedure)","system":"http://snomed.info/sct"}],"text":"Encounter for check up (procedure)"}]}},{"resource":{"class":{"code":"URGENTCARE"},"id":"2f07ab07-bbb4-48fa-9a70-bb3c62050469","meta":{"lastUpdated":"2019-04-09T12:03:30.327143+00:00","versionId":"MTU1NDgxMTQxMDMyNzE0MzAwMA"},"participant":[{"individual":{"reference":"Practitioner/4e75658e-2496-4900-a2a4-e8aa600269ed"}}],"period":{"end":"2013-02-06T07:12:23-05:00","start":"2013-02-06T06:57:23-05:00"},"resourceType":"Encounter","serviceProvider":{"reference":"Organization/057e5b30-6566-4cff-80cc-1e899ab80bae"},"status":"finished","subject":{"reference":"Patient/0accf4d2-156a-425c-8400-33c073a0f661"},"type":[{"coding":[{"code":"371883000","display":"Outpatient procedure (procedure)","system":"http://snomed.info/sct"}],"text":"Outpatient procedure (procedure)"}]}},{"resource":{"class":{"code":"URGENTCARE"},"id":"301a931f-56f7-4322-8d04-20b6e3f4d3ac","meta":{"lastUpdated":"2019-04-09T12:03:37.496854+00:00","versionId":"MTU1NDgxMTQxNzQ5Njg1NDAwMA"},"participant":[{"individual":{"reference":"Practitioner/4e75658e-2496-4900-a2a4-e8aa600269ed"}}],"period":{"end":"2018-10-03T08:12:23-04:00","start":"2018-10-03T07:57:23-04:00"},"resourceType":"Encounter","serviceProvider":{"reference":"Organization/057e5b30-6566-4cff-80cc-1e899ab80bae"},"status":"finished","subject":{"reference":"Patient/0accf4d2-156a-425c-8400-33c073a0f661"},"type":[{"coding":[{"code":"371883000","display":"Outpatient procedure (procedure)","system":"http://snomed.info/sct"}],"text":"Outpatient procedure (procedure)"}]}},{"resource":{"class":{"code":"WELLNESS"},"id":"32d12e55-3005-4130-8639-37db5030ebc6","meta":{"lastUpdated":"2019-04-09T12:03:36.510662+00:00","versionId":"MTU1NDgxMTQxNjUxMDY2MjAwMA"},"participant":[{"individual":{"reference":"Practitioner/26c419ce-a137-417b-90ef-8da89cacc8e3"}}],"period":{"end":"2018-05-09T08:12:23-04:00","start":"2018-05-09T07:57:23-04:00"},"resourceType":"Encounter","serviceProvider":{"reference":"Organization/3c1a6594-2deb-4ff5-972a-a209361ec3eb"},"status":"finished","subject":{"reference":"Patient/0accf4d2-156a-425c-8400-33c073a0f661"},"type":[{"coding":[{"code":"185349003","display":"Encounter for check up (procedure)","system":"http://snomed.info/sct"}],"text":"Encounter for check up (procedure)"}]}},{"resource":{"class":{"code":"URGENTCARE"},"id":"344d20a3-354a-4dba-8d42-1e87f66c961f","meta":{"lastUpdated":"2019-04-09T12:03:36.481369+00:00","versionId":"MTU1NDgxMTQxNjQ4MTM2OTAwMA"},"participant":[{"individual":{"reference":"Practitioner/4e75658e-2496-4900-a2a4-e8aa600269ed"}}],"period":{"end":"2017-10-11T08:12:23-04:00","start":"2017-10-11T07:57:23-04:00"},"resourceType":"Encounter","serviceProvider":{"reference":"Organization/057e5b30-6566-4cff-80cc-1e899ab80bae"},"status":"finished","subject":{"reference":"Patient/0accf4d2-156a-425c-8400-33c073a0f661"},"type":[{"coding":[{"code":"371883000","display":"Outpatient procedure (procedure)","system":"http://snomed.info/sct"}],"text":"Outpatient procedure (procedure)"}]}},{"resource":{"class":{"code":"URGENTCARE"},"id":"367910d3-07c6-443c-9b87-e8ef0e6e7263","meta":{"lastUpdated":"2019-04-09T12:03:33.397251+00:00","versionId":"MTU1NDgxMTQxMzM5NzI1MTAwMA"},"participant":[{"individual":{"reference":"Practitioner/4e75658e-2496-4900-a2a4-e8aa600269ed"}}],"period":{"end":"2015-05-20T08:12:23-04:00","start":"2015-05-20T07:57:23-04:00"},"resourceType":"Encounter","serviceProvider":{"reference":"Organization/057e5b30-6566-4cff-80cc-1e899ab80bae"},"status":"finished","subject":{"reference":"Patient/0accf4d2-156a-425c-8400-33c073a0f661"},"type":[{"coding":[{"code":"371883000","display":"Outpatient procedure (procedure)","system":"http://snomed.info/sct"}],"text":"Outpatient procedure (procedure)"}]}},{"resource":{"class":{"code":"EMERGENCY"},"id":"3882bae4-1e44-4bfa-9de8-c403d1acb7b2","meta":{"lastUpdated":"2019-04-09T12:03:34.439556+00:00","versionId":"MTU1NDgxMTQxNDQzOTU1NjAwMA"},"participant":[{"individual":{"reference":"Practitioner/26c419ce-a137-417b-90ef-8da89cacc8e3"}}],"period":{"end":"2016-02-10T07:57:23-05:00","start":"2016-02-10T06:57:23-05:00"},"resourceType":"Encounter","serviceProvider":{"reference":"Organization/3c1a6594-2deb-4ff5-972a-a209361ec3eb"},"status":"finished","subject":{"reference":"Patient/0accf4d2-156a-425c-8400-33c073a0f661"},"type":[{"coding":[{"code":"50849002","display":"Emergency Encounter","system":"http://snomed.info/sct"}],"text":"Emergency Encounter"}]}},{"resource":{"class":{"code":"emergency"},"id":"4171df32-40e3-465b-ab54-34f2596b5f95","meta":{"lastUpdated":"2019-04-09T12:03:31.367837+00:00","versionId":"MTU1NDgxMTQxMTM2NzgzNzAwMA"},"participant":[{"individual":{"reference":"Practitioner/26c419ce-a137-417b-90ef-8da89cacc8e3"}}],"period":{"end":"2013-11-15T08:13:23-05:00","start":"2013-11-15T06:57:23-05:00"},"resourceType":"Encounter","serviceProvider":{"reference":"Organization/3c1a6594-2deb-4ff5-972a-a209361ec3eb"},"status":"finished","subject":{"reference":"Patient/0accf4d2-156a-425c-8400-33c073a0f661"},"type":[{"coding":[{"code":"50849002","display":"Emergency room admission (procedure)","system":"http://snomed.info/sct"}],"text":"Emergency room admission (procedure)"}]}},{"resource":{"class":{"code":"ambulatory"},"id":"42ff7c1f-c355-47ae-b891-e75757808b76","meta":{"lastUpdated":"2019-04-09T12:03:32.359749+00:00","versionId":"MTU1NDgxMTQxMjM1OTc0OTAwMA"},"participant":[{"individual":{"reference":"Practitioner/26c419ce-a137-417b-90ef-8da89cacc8e3"}}],"period":{"end":"2014-05-07T08:51:23-04:00","start":"2014-05-07T07:57:23-04:00"},"resourceType":"Encounter","serviceProvider":{"reference":"Organization/3c1a6594-2deb-4ff5-972a-a209361ec3eb"},"status":"finished","subject":{"reference":"Patient/0accf4d2-156a-425c-8400-33c073a0f661"},"type":[{"coding":[{"code":"185349003","display":"Encounter for 'check-up'","system":"http://snomed.info/sct"}],"text":"Encounter for 'check-up'"}]}},{"resource":{"class":{"code":"WELLNESS"},"id":"4329fd2d-4269-4520-b0aa-e30ec954cb43","meta":{"lastUpdated":"2019-04-09T12:03:35.485636+00:00","versionId":"MTU1NDgxMTQxNTQ4NTYzNjAwMA"},"participant":[{"individual":{"reference":"Practitioner/26c419ce-a137-417b-90ef-8da89cacc8e3"}}],"period":{"end":"2017-01-18T07:27:23-05:00","start":"2017-01-18T06:57:23-05:00"},"resourceType":"Encounter","serviceProvider":{"reference":"Organization/3c1a6594-2deb-4ff5-972a-a209361ec3eb"},"status":"finished","subject":{"reference":"Patient/0accf4d2-156a-425c-8400-33c073a0f661"},"type":[{"coding":[{"code":"185349003","display":"Encounter for check up (procedure)","system":"http://snomed.info/sct"}],"text":"Encounter for check up (procedure)"}]}},{"resource":{"class":{"code":"URGENTCARE"},"id":"4548ce46-638c-4ea1-98fb-8d2604f374f4","meta":{"lastUpdated":"2019-04-09T12:03:27.213758+00:00","versionId":"MTU1NDgxMTQwNzIxMzc1ODAwMA"},"participant":[{"individual":{"reference":"Practitioner/4e75658e-2496-4900-a2a4-e8aa600269ed"}}],"period":{"end":"2009-12-16T07:12:23-05:00","start":"2009-12-16T06:57:23-05:00"},"resourceType":"Encounter","serviceProvider":{"reference":"Organization/057e5b30-6566-4cff-80cc-1e899ab80bae"},"status":"finished","subject":{"reference":"Patient/0accf4d2-156a-425c-8400-33c073a0f661"},"type":[{"coding":[{"code":"371883000","display":"Outpatient procedure (procedure)","system":"http://snomed.info/sct"}],"text":"Outpatient procedure (procedure)"}]}},{"resource":{"class":{"code":"URGENTCARE"},"id":"456f147f-12ef-4c34-90ee-43f83dcbddea","meta":{"lastUpdated":"2019-04-09T12:03:32.374735+00:00","versionId":"MTU1NDgxMTQxMjM3NDczNTAwMA"},"participant":[{"individual":{"reference":"Practitioner/4e75658e-2496-4900-a2a4-e8aa600269ed"}}],"period":{"end":"2014-09-24T08:12:23-04:00","start":"2014-09-24T07:57:23-04:00"},"resourceType":"Encounter","serviceProvider":{"reference":"Organization/057e5b30-6566-4cff-80cc-1e899ab80bae"},"status":"finished","subject":{"reference":"Patient/0accf4d2-156a-425c-8400-33c073a0f661"},"type":[{"coding":[{"code":"371883000","display":"Outpatient procedure (procedure)","system":"http://snomed.info/sct"}],"text":"Outpatient procedure (procedure)"}]}},{"resource":{"class":{"code":"URGENTCARE"},"id":"49048e56-4edf-483c-afde-f2cbb79e5c58","meta":{"lastUpdated":"2019-04-09T12:03:36.481505+00:00","versionId":"MTU1NDgxMTQxNjQ4MTUwNTAwMA"},"participant":[{"individual":{"reference":"Practitioner/4e75658e-2496-4900-a2a4-e8aa600269ed"}}],"period":{"end":"2018-01-10T07:12:23-05:00","start":"2018-01-10T06:57:23-05:00"},"resourceType":"Encounter","serviceProvider":{"reference":"Organization/057e5b30-6566-4cff-80cc-1e899ab80bae"},"status":"finished","subject":{"reference":"Patient/0accf4d2-156a-425c-8400-33c073a0f661"},"type":[{"coding":[{"code":"371883000","display":"Outpatient procedure (procedure)","system":"http://snomed.info/sct"}],"text":"Outpatient procedure (procedure)"}]}},{"resource":{"class":{"code":"URGENTCARE"},"id":"49e76ef9-d8a2-4e3c-b144-5efe46f2ee1e","meta":{"lastUpdated":"2019-04-09T12:03:26.161029+00:00","versionId":"MTU1NDgxMTQwNjE2MTAyOTAwMA"},"participant":[{"individual":{"reference":"Practitioner/4e75658e-2496-4900-a2a4-e8aa600269ed"}}],"period":{"end":"2009-07-22T08:12:23-04:00","start":"2009-07-22T07:57:23-04:00"},"resourceType":"Encounter","serviceProvider":{"reference":"Organization/057e5b30-6566-4cff-80cc-1e899ab80bae"},"status":"finished","subject":{"reference":"Patient/0accf4d2-156a-425c-8400-33c073a0f661"},"type":[{"coding":[{"code":"371883000","display":"Outpatient procedure (procedure)","system":"http://snomed.info/sct"}],"text":"Outpatient procedure (procedure)"}]}},{"resource":{"class":{"code":"URGENTCARE"},"id":"4afa4653-a6ff-420c-aa00-d4c597709cb1","meta":{"lastUpdated":"2019-04-09T12:03:34.446648+00:00","versionId":"MTU1NDgxMTQxNDQ0NjY0ODAwMA"},"participant":[{"individual":{"reference":"Practitioner/4e75658e-2496-4900-a2a4-e8aa600269ed"}}],"period":{"end":"2016-07-13T08:12:23-04:00","start":"2016-07-13T07:57:23-04:00"},"resourceType":"Encounter","serviceProvider":{"reference":"Organization/057e5b30-6566-4cff-80cc-1e899ab80bae"},"status":"finished","subject":{"reference":"Patient/0accf4d2-156a-425c-8400-33c073a0f661"},"type":[{"coding":[{"code":"371883000","display":"Outpatient procedure (procedure)","system":"http://snomed.info/sct"}],"text":"Outpatient procedure (procedure)"}]}},{"resource":{"class":{"code":"WELLNESS"},"id":"4d32d622-72e7-4bc2-822c-ad1e3a23009e","meta":{"lastUpdated":"2019-04-09T12:03:28.271863+00:00","versionId":"MTU1NDgxMTQwODI3MTg2MzAwMA"},"participant":[{"individual":{"reference":"Practitioner/26c419ce-a137-417b-90ef-8da89cacc8e3"}}],"period":{"end":"2011-08-17T08:12:23-04:00","start":"2011-08-17T07:57:23-04:00"},"resourceType":"Encounter","serviceProvider":{"reference":"Organization/3c1a6594-2deb-4ff5-972a-a209361ec3eb"},"status":"finished","subject":{"reference":"Patient/0accf4d2-156a-425c-8400-33c073a0f661"},"type":[{"coding":[{"code":"185349003","display":"Encounter for check up (procedure)","system":"http://snomed.info/sct"}],"text":"Encounter for check up (procedure)"}]}},{"resource":{"class":{"code":"URGENTCARE"},"id":"4e5ce36e-a37e-426a-855f-d49d1882ca5e","meta":{"lastUpdated":"2019-04-09T12:03:30.321046+00:00","versionId":"MTU1NDgxMTQxMDMyMTA0NjAwMA"},"participant":[{"individual":{"reference":"Practitioner/4e75658e-2496-4900-a2a4-e8aa600269ed"}}],"period":{"end":"2013-02-27T07:12:23-05:00","start":"2013-02-27T06:57:23-05:00"},"resourceType":"Encounter","serviceProvider":{"reference":"Organization/057e5b30-6566-4cff-80cc-1e899ab80bae"},"status":"finished","subject":{"reference":"Patient/0accf4d2-156a-425c-8400-33c073a0f661"},"type":[{"coding":[{"code":"371883000","display":"Outpatient procedure (procedure)","system":"http://snomed.info/sct"}],"text":"Outpatient procedure (procedure)"}]}},{"resource":{"class":{"code":"URGENTCARE"},"id":"53887957-5e9f-4852-9766-f2e386af0c99","meta":{"lastUpdated":"2019-04-09T12:03:37.501994+00:00","versionId":"MTU1NDgxMTQxNzUwMTk5NDAwMA"},"participant":[{"individual":{"reference":"Practitioner/4e75658e-2496-4900-a2a4-e8aa600269ed"}}],"period":{"end":"2018-10-31T08:12:23-04:00","start":"2018-10-31T07:57:23-04:00"},"resourceType":"Encounter","serviceProvider":{"reference":"Organization/057e5b30-6566-4cff-80cc-1e899ab80bae"},"status":"finished","subject":{"reference":"Patient/0accf4d2-156a-425c-8400-33c073a0f661"},"type":[{"coding":[{"code":"371883000","display":"Outpatient procedure (procedure)","system":"http://snomed.info/sct"}],"text":"Outpatient procedure (procedure)"}]}},{"resource":{"class":{"code":"URGENTCARE"},"id":"5a43c0ed-a48a-4083-8718-6f163b0d2fd3","meta":{"lastUpdated":"2019-04-09T12:03:32.363698+00:00","versionId":"MTU1NDgxMTQxMjM2MzY5ODAwMA"},"participant":[{"individual":{"reference":"Practitioner/4e75658e-2496-4900-a2a4-e8aa600269ed"}}],"period":{"end":"2014-06-25T08:12:23-04:00","start":"2014-06-25T07:57:23-04:00"},"resourceType":"Encounter","serviceProvider":{"reference":"Organization/057e5b30-6566-4cff-80cc-1e899ab80bae"},"status":"finished","subject":{"reference":"Patient/0accf4d2-156a-425c-8400-33c073a0f661"},"type":[{"coding":[{"code":"371883000","display":"Outpatient procedure (procedure)","system":"http://snomed.info/sct"}],"text":"Outpatient procedure (procedure)"}]}},{"resource":{"class":{"code":"URGENTCARE"},"id":"5bb02c21-7acd-4eb4-b5bc-5adb4a96cb91","meta":{"lastUpdated":"2019-04-09T12:03:37.496873+00:00","versionId":"MTU1NDgxMTQxNzQ5Njg3MzAwMA"},"participant":[{"individual":{"reference":"Practitioner/4e75658e-2496-4900-a2a4-e8aa600269ed"}}],"period":{"end":"2018-08-29T08:12:23-04:00","start":"2018-08-29T07:57:23-04:00"},"resourceType":"Encounter","serviceProvider":{"reference":"Organization/057e5b30-6566-4cff-80cc-1e899ab80bae"},"status":"finished","subject":{"reference":"Patient/0accf4d2-156a-425c-8400-33c073a0f661"},"type":[{"coding":[{"code":"371883000","display":"Outpatient procedure (procedure)","system":"http://snomed.info/sct"}],"text":"Outpatient procedure (procedure)"}]}},{"resource":{"class":{"code":"WELLNESS"},"id":"5dbe5940-289e-441f-8ffa-cb1ef13cc4bc","meta":{"lastUpdated":"2019-04-09T12:03:32.374752+00:00","versionId":"MTU1NDgxMTQxMjM3NDc1MjAwMA"},"participant":[{"individual":{"reference":"Practitioner/26c419ce-a137-417b-90ef-8da89cacc8e3"}}],"period":{"end":"2015-01-21T07:12:23-05:00","start":"2015-01-21T06:57:23-05:00"},"resourceType":"Encounter","serviceProvider":{"reference":"Organization/3c1a6594-2deb-4ff5-972a-a209361ec3eb"},"status":"finished","subject":{"reference":"Patient/0accf4d2-156a-425c-8400-33c073a0f661"},"type":[{"coding":[{"code":"185349003","display":"Encounter for check up (procedure)","system":"http://snomed.info/sct"}],"text":"Encounter for check up (procedure)"}]}},{"resource":{"class":{"code":"WELLNESS"},"id":"61433c7a-f47d-4da2-8703-76c737b35890","meta":{"lastUpdated":"2019-04-09T12:03:28.287386+00:00","versionId":"MTU1NDgxMTQwODI4NzM4NjAwMA"},"participant":[{"individual":{"reference":"Practitioner/26c419ce-a137-417b-90ef-8da89cacc8e3"}}],"period":{"end":"2012-01-04T07:27:23-05:00","start":"2012-01-04T06:57:23-05:00"},"resourceType":"Encounter","serviceProvider":{"reference":"Organization/3c1a6594-2deb-4ff5-972a-a209361ec3eb"},"status":"finished","subject":{"reference":"Patient/0accf4d2-156a-425c-8400-33c073a0f661"},"type":[{"coding":[{"code":"185349003","display":"Encounter for check up (procedure)","system":"http://snomed.info/sct"}],"text":"Encounter for check up (procedure)"}]}},{"resource":{"class":{"code":"URGENTCARE"},"id":"62764d69-1b97-4d25-8e10-15060e9c1af7","meta":{"lastUpdated":"2019-04-09T12:03:32.381130+00:00","versionId":"MTU1NDgxMTQxMjM4MTEzMDAwMA"},"participant":[{"individual":{"reference":"Practitioner/4e75658e-2496-4900-a2a4-e8aa600269ed"}}],"period":{"end":"2014-11-19T07:12:23-05:00","start":"2014-11-19T06:57:23-05:00"},"resourceType":"Encounter","serviceProvider":{"reference":"Organization/057e5b30-6566-4cff-80cc-1e899ab80bae"},"status":"finished","subject":{"reference":"Patient/0accf4d2-156a-425c-8400-33c073a0f661"},"type":[{"coding":[{"code":"371883000","display":"Outpatient procedure (procedure)","system":"http://snomed.info/sct"}],"text":"Outpatient procedure (procedure)"}]}},{"resource":{"class":{"code":"URGENTCARE"},"id":"63541d5b-671c-4628-9de8-0b77b3609e6d","meta":{"lastUpdated":"2019-04-09T12:03:33.395733+00:00","versionId":"MTU1NDgxMTQxMzM5NTczMzAwMA"},"participant":[{"individual":{"reference":"Practitioner/4e75658e-2496-4900-a2a4-e8aa600269ed"}}],"period":{"end":"2015-03-25T08:12:23-04:00","start":"2015-03-25T07:57:23-04:00"},"resourceType":"Encounter","serviceProvider":{"reference":"Organization/057e5b30-6566-4cff-80cc-1e899ab80bae"},"status":"finished","subject":{"reference":"Patient/0accf4d2-156a-425c-8400-33c073a0f661"},"type":[{"coding":[{"code":"371883000","display":"Outpatient procedure (procedure)","system":"http://snomed.info/sct"}],"text":"Outpatient procedure (procedure)"}]}},{"resource":{"class":{"code":"URGENTCARE"},"id":"639689c5-c708-4603-80de-eb6c93630067","meta":{"lastUpdated":"2019-04-09T12:03:34.448540+00:00","versionId":"MTU1NDgxMTQxNDQ0ODU0MDAwMA"},"participant":[{"individual":{"reference":"Practitioner/4e75658e-2496-4900-a2a4-e8aa600269ed"}}],"period":{"end":"2016-07-20T08:12:23-04:00","start":"2016-07-20T07:57:23-04:00"},"resourceType":"Encounter","serviceProvider":{"reference":"Organization/057e5b30-6566-4cff-80cc-1e899ab80bae"},"status":"finished","subject":{"reference":"Patient/0accf4d2-156a-425c-8400-33c073a0f661"},"type":[{"coding":[{"code":"371883000","display":"Outpatient procedure (procedure)","system":"http://snomed.info/sct"}],"text":"Outpatient procedure (procedure)"}]}},{"resource":{"class":{"code":"WELLNESS"},"id":"6398d4e6-7dea-4133-8e28-64cb5b80c9b1","meta":{"lastUpdated":"2019-04-09T12:03:34.464146+00:00","versionId":"MTU1NDgxMTQxNDQ2NDE0NjAwMA"},"participant":[{"individual":{"reference":"Practitioner/26c419ce-a137-417b-90ef-8da89cacc8e3"}}],"period":{"end":"2016-09-07T08:27:23-04:00","start":"2016-09-07T07:57:23-04:00"},"resourceType":"Encounter","serviceProvider":{"reference":"Organization/3c1a6594-2deb-4ff5-972a-a209361ec3eb"},"status":"finished","subject":{"reference":"Patient/0accf4d2-156a-425c-8400-33c073a0f661"},"type":[{"coding":[{"code":"185349003","display":"Encounter for check up (procedure)","system":"http://snomed.info/sct"}],"text":"Encounter for check up (procedure)"}]}},{"resource":{"class":{"code":"WELLNESS"},"id":"6499697f-79bb-4154-b4ae-060094370e1f","meta":{"lastUpdated":"2019-04-09T12:03:36.497042+00:00","versionId":"MTU1NDgxMTQxNjQ5NzA0MjAwMA"},"participant":[{"individual":{"reference":"Practitioner/26c419ce-a137-417b-90ef-8da89cacc8e3"}}],"period":{"end":"2017-12-06T07:27:23-05:00","start":"2017-12-06T06:57:23-05:00"},"resourceType":"Encounter","serviceProvider":{"reference":"Organization/3c1a6594-2deb-4ff5-972a-a209361ec3eb"},"status":"finished","subject":{"reference":"Patient/0accf4d2-156a-425c-8400-33c073a0f661"},"type":[{"coding":[{"code":"185349003","display":"Encounter for check up (procedure)","system":"http://snomed.info/sct"}],"text":"Encounter for check up (procedure)"}]}},{"resource":{"class":{"code":"WELLNESS"},"id":"65bbafda-c532-4599-a865-a3f0b5f98429","meta":{"lastUpdated":"2019-04-09T12:03:31.357795+00:00","versionId":"MTU1NDgxMTQxMTM1Nzc5NTAwMA"},"participant":[{"individual":{"reference":"Practitioner/26c419ce-a137-417b-90ef-8da89cacc8e3"}}],"period":{"end":"2013-12-25T07:27:23-05:00","start":"2013-12-25T06:57:23-05:00"},"resourceType":"Encounter","serviceProvider":{"reference":"Organization/3c1a6594-2deb-4ff5-972a-a209361ec3eb"},"status":"finished","subject":{"reference":"Patient/0accf4d2-156a-425c-8400-33c073a0f661"},"type":[{"coding":[{"code":"185349003","display":"Encounter for check up (procedure)","system":"http://snomed.info/sct"}],"text":"Encounter for check up (procedure)"}]}},{"resource":{"class":{"code":"emergency"},"id":"66ac8ffd-0fd7-4850-af70-751b44809da7","meta":{"lastUpdated":"2019-04-09T12:03:26.154343+00:00","versionId":"MTU1NDgxMTQwNjE1NDM0MzAwMA"},"participant":[{"individual":{"reference":"Practitioner/26c419ce-a137-417b-90ef-8da89cacc8e3"}}],"period":{"end":"1978-11-19T09:27:23-05:00","start":"1978-11-19T06:57:23-05:00"},"resourceType":"Encounter","serviceProvider":{"reference":"Organization/3c1a6594-2deb-4ff5-972a-a209361ec3eb"},"status":"finished","subject":{"reference":"Patient/0accf4d2-156a-425c-8400-33c073a0f661"},"type":[{"coding":[{"code":"50849002","display":"Emergency room admission (procedure)","system":"http://snomed.info/sct"}],"text":"Emergency room admission (procedure)"}]}},{"resource":{"class":{"code":"URGENTCARE"},"id":"675b200a-7079-454d-a757-ea834c792681","meta":{"lastUpdated":"2019-04-09T12:03:33.397250+00:00","versionId":"MTU1NDgxMTQxMzM5NzI1MDAwMA"},"participant":[{"individual":{"reference":"Practitioner/4e75658e-2496-4900-a2a4-e8aa600269ed"}}],"period":{"end":"2015-06-17T08:12:23-04:00","start":"2015-06-17T07:57:23-04:00"},"resourceType":"Encounter","serviceProvider":{"reference":"Organization/057e5b30-6566-4cff-80cc-1e899ab80bae"},"status":"finished","subject":{"reference":"Patient/0accf4d2-156a-425c-8400-33c073a0f661"},"type":[{"coding":[{"code":"371883000","display":"Outpatient procedure (procedure)","system":"http://snomed.info/sct"}],"text":"Outpatient procedure (procedure)"}]}},{"resource":{"class":{"code":"URGENTCARE"},"id":"67736919-c0be-4653-ac4f-cb7c88f82a40","meta":{"lastUpdated":"2019-04-09T12:03:29.364135+00:00","versionId":"MTU1NDgxMTQwOTM2NDEzNTAwMA"},"participant":[{"individual":{"reference":"Practitioner/4e75658e-2496-4900-a2a4-e8aa600269ed"}}],"period":{"end":"2012-10-31T08:12:23-04:00","start":"2012-10-31T07:57:23-04:00"},"resourceType":"Encounter","serviceProvider":{"reference":"Organization/057e5b30-6566-4cff-80cc-1e899ab80bae"},"status":"finished","subject":{"reference":"Patient/0accf4d2-156a-425c-8400-33c073a0f661"},"type":[{"coding":[{"code":"371883000","display":"Outpatient procedure (procedure)","system":"http://snomed.info/sct"}],"text":"Outpatient procedure (procedure)"}]}},{"resource":{"class":{"code":"WELLNESS"},"id":"682752dc-827d-4ee0-86af-e575945c0c46","meta":{"lastUpdated":"2019-04-09T12:03:34.476921+00:00","versionId":"MTU1NDgxMTQxNDQ3NjkyMTAwMA"},"participant":[{"individual":{"reference":"Practitioner/26c419ce-a137-417b-90ef-8da89cacc8e3"}}],"period":{"end":"2016-10-12T08:12:23-04:00","start":"2016-10-12T07:57:23-04:00"},"resourceType":"Encounter","serviceProvider":{"reference":"Organization/3c1a6594-2deb-4ff5-972a-a209361ec3eb"},"status":"finished","subject":{"reference":"Patient/0accf4d2-156a-425c-8400-33c073a0f661"},"type":[{"coding":[{"code":"185349003","display":"Encounter for check up (procedure)","system":"http://snomed.info/sct"}],"text":"Encounter for check up (procedure)"}]}},{"resource":{"class":{"code":"ambulatory"},"id":"68ceac21-20b0-45ab-b746-da40b0e6d94a","meta":{"lastUpdated":"2019-04-09T12:03:32.407741+00:00","versionId":"MTU1NDgxMTQxMjQwNzc0MTAwMA"},"participant":[{"individual":{"reference":"Practitioner/26c419ce-a137-417b-90ef-8da89cacc8e3"}}],"period":{"end":"2015-01-31T07:12:23-05:00","start":"2015-01-31T06:57:23-05:00"},"reason":[{"coding":[{"code":"10509002","display":"Acute bronchitis (disorder)","system":"http://snomed.info/sct"}]}],"resourceType":"Encounter","serviceProvider":{"reference":"Organization/3c1a6594-2deb-4ff5-972a-a209361ec3eb"},"status":"finished","subject":{"reference":"Patient/0accf4d2-156a-425c-8400-33c073a0f661"},"type":[{"coding":[{"code":"185345009","display":"Encounter for symptom","system":"http://snomed.info/sct"}],"text":"Encounter for symptom"}]}},{"resource":{"class":{"code":"ambulatory"},"id":"68ea31fb-dba8-4fdf-b79f-2125ab326cbe","meta":{"lastUpdated":"2019-04-09T12:03:37.509882+00:00","versionId":"MTU1NDgxMTQxNzUwOTg4MjAwMA"},"participant":[{"individual":{"reference":"Practitioner/26c419ce-a137-417b-90ef-8da89cacc8e3"}}],"period":{"end":"2019-01-07T07:25:23-05:00","start":"2019-01-07T06:57:23-05:00"},"reason":[{"coding":[{"code":"10509002","display":"Acute bronchitis (disorder)","system":"http://snomed.info/sct"}]}],"resourceType":"Encounter","serviceProvider":{"reference":"Organization/3c1a6594-2deb-4ff5-972a-a209361ec3eb"},"status":"finished","subject":{"reference":"Patient/0accf4d2-156a-425c-8400-33c073a0f661"},"type":[{"coding":[{"code":"185345009","display":"Encounter for symptom","system":"http://snomed.info/sct"}],"text":"Encounter for symptom"}]}},{"resource":{"class":{"code":"WELLNESS"},"id":"698efea4-5011-4a9a-85e2-c3f6dd24ddf1","meta":{"lastUpdated":"2019-04-09T12:03:31.364239+00:00","versionId":"MTU1NDgxMTQxMTM2NDIzOTAwMA"},"participant":[{"individual":{"reference":"Practitioner/26c419ce-a137-417b-90ef-8da89cacc8e3"}}],"period":{"end":"2014-04-02T08:12:23-04:00","start":"2014-04-02T07:57:23-04:00"},"resourceType":"Encounter","serviceProvider":{"reference":"Organization/3c1a6594-2deb-4ff5-972a-a209361ec3eb"},"status":"finished","subject":{"reference":"Patient/0accf4d2-156a-425c-8400-33c073a0f661"},"type":[{"coding":[{"code":"185349003","display":"Encounter for check up (procedure)","system":"http://snomed.info/sct"}],"text":"Encounter for check up (procedure)"}]}},{"resource":{"class":{"code":"WELLNESS"},"id":"6a138369-86ab-4256-b448-82b8fe3fd953","meta":{"lastUpdated":"2019-04-09T12:03:31.367846+00:00","versionId":"MTU1NDgxMTQxMTM2Nzg0NjAwMA"},"participant":[{"individual":{"reference":"Practitioner/26c419ce-a137-417b-90ef-8da89cacc8e3"}}],"period":{"end":"2014-03-05T07:27:23-05:00","start":"2014-03-05T06:57:23-05:00"},"resourceType":"Encounter","serviceProvider":{"reference":"Organization/3c1a6594-2deb-4ff5-972a-a209361ec3eb"},"status":"finished","subject":{"reference":"Patient/0accf4d2-156a-425c-8400-33c073a0f661"},"type":[{"coding":[{"code":"185349003","display":"Encounter for check up (procedure)","system":"http://snomed.info/sct"}],"text":"Encounter for check up (procedure)"}]}},{"resource":{"class":{"code":"URGENTCARE"},"id":"6a1c073c-612d-437f-9485-31bae1b5db3c","meta":{"lastUpdated":"2019-04-09T12:03:35.490186+00:00","versionId":"MTU1NDgxMTQxNTQ5MDE4NjAwMA"},"participant":[{"individual":{"reference":"Practitioner/4e75658e-2496-4900-a2a4-e8aa600269ed"}}],"period":{"end":"2017-06-07T08:12:23-04:00","start":"2017-06-07T07:57:23-04:00"},"resourceType":"Encounter","serviceProvider":{"reference":"Organization/057e5b30-6566-4cff-80cc-1e899ab80bae"},"status":"finished","subject":{"reference":"Patient/0accf4d2-156a-425c-8400-33c073a0f661"},"type":[{"coding":[{"code":"371883000","display":"Outpatient procedure (procedure)","system":"http://snomed.info/sct"}],"text":"Outpatient procedure (procedure)"}]}},{"resource":{"class":{"code":"WELLNESS"},"id":"6ef8598d-dcc2-4fed-8d35-f406fda5cd57","meta":{"lastUpdated":"2019-04-09T12:03:35.479362+00:00","versionId":"MTU1NDgxMTQxNTQ3OTM2MjAwMA"},"participant":[{"individual":{"reference":"Practitioner/26c419ce-a137-417b-90ef-8da89cacc8e3"}}],"period":{"end":"2016-12-07T07:27:23-05:00","start":"2016-12-07T06:57:23-05:00"},"resourceType":"Encounter","serviceProvider":{"reference":"Organization/3c1a6594-2deb-4ff5-972a-a209361ec3eb"},"status":"finished","subject":{"reference":"Patient/0accf4d2-156a-425c-8400-33c073a0f661"},"type":[{"coding":[{"code":"185349003","display":"Encounter for check up (procedure)","system":"http://snomed.info/sct"}],"text":"Encounter for check up (procedure)"}]}},{"resource":{"class":{"code":"WELLNESS"},"id":"729947c3-df2f-4b69-a4f7-14620836a0d9","meta":{"lastUpdated":"2019-04-09T12:03:36.494629+00:00","versionId":"MTU1NDgxMTQxNjQ5NDYyOTAwMA"},"participant":[{"individual":{"reference":"Practitioner/26c419ce-a137-417b-90ef-8da89cacc8e3"}}],"period":{"end":"2018-04-04T08:12:23-04:00","start":"2018-04-04T07:57:23-04:00"},"resourceType":"Encounter","serviceProvider":{"reference":"Organization/3c1a6594-2deb-4ff5-972a-a209361ec3eb"},"status":"finished","subject":{"reference":"Patient/0accf4d2-156a-425c-8400-33c073a0f661"},"type":[{"coding":[{"code":"185349003","display":"Encounter for check up (procedure)","system":"http://snomed.info/sct"}],"text":"Encounter for check up (procedure)"}]}},{"resource":{"class":{"code":"URGENTCARE"},"id":"72d07237-0902-4ad8-99b1-025aa15e4d43","meta":{"lastUpdated":"2019-04-09T12:03:27.255390+00:00","versionId":"MTU1NDgxMTQwNzI1NTM5MDAwMA"},"participant":[{"individual":{"reference":"Practitioner/4e75658e-2496-4900-a2a4-e8aa600269ed"}}],"period":{"end":"2011-04-13T08:12:23-04:00","start":"2011-04-13T07:57:23-04:00"},"resourceType":"Encounter","serviceProvider":{"reference":"Organization/057e5b30-6566-4cff-80cc-1e899ab80bae"},"status":"finished","subject":{"reference":"Patient/0accf4d2-156a-425c-8400-33c073a0f661"},"type":[{"coding":[{"code":"371883000","display":"Outpatient procedure (procedure)","system":"http://snomed.info/sct"}],"text":"Outpatient procedure (procedure)"}]}},{"resource":{"class":{"code":"URGENTCARE"},"id":"75e1ce98-a8db-4385-ae28-217b5f9b5b3a","meta":{"lastUpdated":"2019-04-09T12:03:30.337591+00:00","versionId":"MTU1NDgxMTQxMDMzNzU5MTAwMA"},"participant":[{"individual":{"reference":"Practitioner/4e75658e-2496-4900-a2a4-e8aa600269ed"}}],"period":{"end":"2013-10-23T08:12:23-04:00","start":"2013-10-23T07:57:23-04:00"},"resourceType":"Encounter","serviceProvider":{"reference":"Organization/057e5b30-6566-4cff-80cc-1e899ab80bae"},"status":"finished","subject":{"reference":"Patient/0accf4d2-156a-425c-8400-33c073a0f661"},"type":[{"coding":[{"code":"371883000","display":"Outpatient procedure (procedure)","system":"http://snomed.info/sct"}],"text":"Outpatient procedure (procedure)"}]}},{"resource":{"class":{"code":"URGENTCARE"},"id":"76420f10-8545-4b68-8424-8edd833b710c","meta":{"lastUpdated":"2019-04-09T12:03:34.448539+00:00","versionId":"MTU1NDgxMTQxNDQ0ODUzOTAwMA"},"participant":[{"individual":{"reference":"Practitioner/4e75658e-2496-4900-a2a4-e8aa600269ed"}}],"period":{"end":"2016-05-11T08:12:23-04:00","start":"2016-05-11T07:57:23-04:00"},"resourceType":"Encounter","serviceProvider":{"reference":"Organization/057e5b30-6566-4cff-80cc-1e899ab80bae"},"status":"finished","subject":{"reference":"Patient/0accf4d2-156a-425c-8400-33c073a0f661"},"type":[{"coding":[{"code":"371883000","display":"Outpatient procedure (procedure)","system":"http://snomed.info/sct"}],"text":"Outpatient procedure (procedure)"}]}},{"resource":{"class":{"code":"ambulatory"},"id":"76c57feb-753d-455e-af4c-c7d2a79048dc","meta":{"lastUpdated":"2019-04-09T12:03:26.154344+00:00","versionId":"MTU1NDgxMTQwNjE1NDM0NDAwMA"},"participant":[{"individual":{"reference":"Practitioner/26c419ce-a137-417b-90ef-8da89cacc8e3"}}],"period":{"end":"1988-05-23T08:39:23-04:00","start":"1988-05-23T07:57:23-04:00"},"resourceType":"Encounter","serviceProvider":{"reference":"Organization/3c1a6594-2deb-4ff5-972a-a209361ec3eb"},"status":"finished","subject":{"reference":"Patient/0accf4d2-156a-425c-8400-33c073a0f661"},"type":[{"coding":[{"code":"185347001","display":"Encounter for problem","system":"http://snomed.info/sct"}],"text":"Encounter for problem"}]}},{"resource":{"class":{"code":"URGENTCARE"},"id":"7876f290-4933-49c3-a833-2db9c0c217c9","meta":{"lastUpdated":"2019-04-09T12:03:29.378729+00:00","versionId":"MTU1NDgxMTQwOTM3ODcyOTAwMA"},"participant":[{"individual":{"reference":"Practitioner/4e75658e-2496-4900-a2a4-e8aa600269ed"}}],"period":{"end":"2013-01-02T07:12:23-05:00","start":"2013-01-02T06:57:23-05:00"},"resourceType":"Encounter","serviceProvider":{"reference":"Organization/057e5b30-6566-4cff-80cc-1e899ab80bae"},"status":"finished","subject":{"reference":"Patient/0accf4d2-156a-425c-8400-33c073a0f661"},"type":[{"coding":[{"code":"371883000","display":"Outpatient procedure (procedure)","system":"http://snomed.info/sct"}],"text":"Outpatient procedure (procedure)"}]}},{"resource":{"class":{"code":"URGENTCARE"},"id":"78a6a772-b255-4dc5-9e4c-c72977172ab8","meta":{"lastUpdated":"2019-04-09T12:03:32.406426+00:00","versionId":"MTU1NDgxMTQxMjQwNjQyNjAwMA"},"participant":[{"individual":{"reference":"Practitioner/4e75658e-2496-4900-a2a4-e8aa600269ed"}}],"period":{"end":"2015-02-18T07:12:23-05:00","start":"2015-02-18T06:57:23-05:00"},"resourceType":"Encounter","serviceProvider":{"reference":"Organization/057e5b30-6566-4cff-80cc-1e899ab80bae"},"status":"finished","subject":{"reference":"Patient/0accf4d2-156a-425c-8400-33c073a0f661"},"type":[{"coding":[{"code":"371883000","display":"Outpatient procedure (procedure)","system":"http://snomed.info/sct"}],"text":"Outpatient procedure (procedure)"}]}},{"resource":{"class":{"code":"URGENTCARE"},"id":"79bec688-7b46-450e-a9a0-245aca092bf4","meta":{"lastUpdated":"2019-04-09T12:03:30.335672+00:00","versionId":"MTU1NDgxMTQxMDMzNTY3MjAwMA"},"participant":[{"individual":{"reference":"Practitioner/4e75658e-2496-4900-a2a4-e8aa600269ed"}}],"period":{"end":"2013-08-28T08:12:23-04:00","start":"2013-08-28T07:57:23-04:00"},"resourceType":"Encounter","serviceProvider":{"reference":"Organization/057e5b30-6566-4cff-80cc-1e899ab80bae"},"status":"finished","subject":{"reference":"Patient/0accf4d2-156a-425c-8400-33c073a0f661"},"type":[{"coding":[{"code":"371883000","display":"Outpatient procedure (procedure)","system":"http://snomed.info/sct"}],"text":"Outpatient procedure (procedure)"}]}},{"resource":{"class":{"code":"URGENTCARE"},"id":"7a1bc982-58d2-4c1f-a7a9-beae92309eee","meta":{"lastUpdated":"2019-04-09T12:03:27.246823+00:00","versionId":"MTU1NDgxMTQwNzI0NjgyMzAwMA"},"participant":[{"individual":{"reference":"Practitioner/4e75658e-2496-4900-a2a4-e8aa600269ed"}}],"period":{"end":"2011-05-11T08:12:23-04:00","start":"2011-05-11T07:57:23-04:00"},"resourceType":"Encounter","serviceProvider":{"reference":"Organization/057e5b30-6566-4cff-80cc-1e899ab80bae"},"status":"finished","subject":{"reference":"Patient/0accf4d2-156a-425c-8400-33c073a0f661"},"type":[{"coding":[{"code":"371883000","display":"Outpatient procedure (procedure)","system":"http://snomed.info/sct"}],"text":"Outpatient procedure (procedure)"}]}},{"resource":{"class":{"code":"URGENTCARE"},"id":"7be34403-3dc9-450e-826c-3a8523350348","meta":{"lastUpdated":"2019-04-09T12:03:37.501972+00:00","versionId":"MTU1NDgxMTQxNzUwMTk3MjAwMA"},"participant":[{"individual":{"reference":"Practitioner/4e75658e-2496-4900-a2a4-e8aa600269ed"}}],"period":{"end":"2018-11-28T07:12:23-05:00","start":"2018-11-28T06:57:23-05:00"},"resourceType":"Encounter","serviceProvider":{"reference":"Organization/057e5b30-6566-4cff-80cc-1e899ab80bae"},"status":"finished","subject":{"reference":"Patient/0accf4d2-156a-425c-8400-33c073a0f661"},"type":[{"coding":[{"code":"371883000","display":"Outpatient procedure (procedure)","system":"http://snomed.info/sct"}],"text":"Outpatient procedure (procedure)"}]}},{"resource":{"class":{"code":"URGENTCARE"},"id":"7d5f90cf-9aa2-44f4-b05a-9c55d47bd832","meta":{"lastUpdated":"2019-04-09T12:03:28.283307+00:00","versionId":"MTU1NDgxMTQwODI4MzMwNzAwMA"},"participant":[{"individual":{"reference":"Practitioner/4e75658e-2496-4900-a2a4-e8aa600269ed"}}],"period":{"end":"2011-09-07T08:12:23-04:00","start":"2011-09-07T07:57:23-04:00"},"resourceType":"Encounter","serviceProvider":{"reference":"Organization/057e5b30-6566-4cff-80cc-1e899ab80bae"},"status":"finished","subject":{"reference":"Patient/0accf4d2-156a-425c-8400-33c073a0f661"},"type":[{"coding":[{"code":"371883000","display":"Outpatient procedure (procedure)","system":"http://snomed.info/sct"}],"text":"Outpatient procedure (procedure)"}]}},{"resource":{"class":{"code":"WELLNESS"},"id":"8039ffb3-6c02-4b7b-aa91-d6936d375db5","meta":{"lastUpdated":"2019-04-09T12:03:29.323013+00:00","versionId":"MTU1NDgxMTQwOTMyMzAxMzAwMA"},"participant":[{"individual":{"reference":"Practitioner/26c419ce-a137-417b-90ef-8da89cacc8e3"}}],"period":{"end":"2012-05-02T08:27:23-04:00","start":"2012-05-02T07:57:23-04:00"},"resourceType":"Encounter","serviceProvider":{"reference":"Organization/3c1a6594-2deb-4ff5-972a-a209361ec3eb"},"status":"finished","subject":{"reference":"Patient/0accf4d2-156a-425c-8400-33c073a0f661"},"type":[{"coding":[{"code":"185349003","display":"Encounter for check up (procedure)","system":"http://snomed.info/sct"}],"text":"Encounter for check up (procedure)"}]}},{"resource":{"class":{"code":"URGENTCARE"},"id":"80470e9a-d760-4310-abe2-0670d2cca597","meta":{"lastUpdated":"2019-04-09T12:03:26.170858+00:00","versionId":"MTU1NDgxMTQwNjE3MDg1ODAwMA"},"participant":[{"individual":{"reference":"Practitioner/4e75658e-2496-4900-a2a4-e8aa600269ed"}}],"period":{"end":"2009-06-17T08:12:23-04:00","start":"2009-06-17T07:57:23-04:00"},"resourceType":"Encounter","serviceProvider":{"reference":"Organization/057e5b30-6566-4cff-80cc-1e899ab80bae"},"status":"finished","subject":{"reference":"Patient/0accf4d2-156a-425c-8400-33c073a0f661"},"type":[{"coding":[{"code":"371883000","display":"Outpatient procedure (procedure)","system":"http://snomed.info/sct"}],"text":"Outpatient procedure (procedure)"}]}},{"resource":{"class":{"code":"WELLNESS"},"id":"8075aa3d-545e-4c34-aae0-72b8df9e4592","meta":{"lastUpdated":"2019-04-09T12:03:37.499011+00:00","versionId":"MTU1NDgxMTQxNzQ5OTAxMTAwMA"},"participant":[{"individual":{"reference":"Practitioner/26c419ce-a137-417b-90ef-8da89cacc8e3"}}],"period":{"end":"2018-12-05T07:27:23-05:00","start":"2018-12-05T06:57:23-05:00"},"resourceType":"Encounter","serviceProvider":{"reference":"Organization/3c1a6594-2deb-4ff5-972a-a209361ec3eb"},"status":"finished","subject":{"reference":"Patient/0accf4d2-156a-425c-8400-33c073a0f661"},"type":[{"coding":[{"code":"185349003","display":"Encounter for check up (procedure)","system":"http://snomed.info/sct"}],"text":"Encounter for check up (procedure)"}]}},{"resource":{"class":{"code":"EMERGENCY"},"id":"8154104b-952a-481b-bcf8-cb983badeed1","meta":{"lastUpdated":"2019-04-09T12:03:28.271862+00:00","versionId":"MTU1NDgxMTQwODI3MTg2MjAwMA"},"participant":[{"individual":{"reference":"Practitioner/26c419ce-a137-417b-90ef-8da89cacc8e3"}}],"period":{"end":"2011-06-22T08:57:23-04:00","start":"2011-06-22T07:57:23-04:00"},"resourceType":"Encounter","serviceProvider":{"reference":"Organization/3c1a6594-2deb-4ff5-972a-a209361ec3eb"},"status":"finished","subject":{"reference":"Patient/0accf4d2-156a-425c-8400-33c073a0f661"},"type":[{"coding":[{"code":"50849002","display":"Emergency Encounter","system":"http://snomed.info/sct"}],"text":"Emergency Encounter"}]}},{"resource":{"class":{"code":"WELLNESS"},"id":"820a48d9-8df4-493c-933d-41624ea4aaba","meta":{"lastUpdated":"2019-04-09T12:03:27.213200+00:00","versionId":"MTU1NDgxMTQwNzIxMzIwMDAwMA"},"participant":[{"individual":{"reference":"Practitioner/26c419ce-a137-417b-90ef-8da89cacc8e3"}}],"period":{"end":"2010-04-14T08:12:23-04:00","start":"2010-04-14T07:57:23-04:00"},"resourceType":"Encounter","serviceProvider":{"reference":"Organization/3c1a6594-2deb-4ff5-972a-a209361ec3eb"},"status":"finished","subject":{"reference":"Patient/0accf4d2-156a-425c-8400-33c073a0f661"},"type":[{"coding":[{"code":"185349003","display":"Encounter for check up (procedure)","system":"http://snomed.info/sct"}],"text":"Encounter for check up (procedure)"}]}},{"resource":{"class":{"code":"WELLNESS"},"id":"82b893df-807a-4031-ad10-abbbb2c4e7db","meta":{"lastUpdated":"2019-04-09T12:03:36.519110+00:00","versionId":"MTU1NDgxMTQxNjUxOTExMDAwMA"},"participant":[{"individual":{"reference":"Practitioner/26c419ce-a137-417b-90ef-8da89cacc8e3"}}],"period":{"end":"2018-07-04T08:27:23-04:00","start":"2018-07-04T07:57:23-04:00"},"resourceType":"Encounter","serviceProvider":{"reference":"Organization/3c1a6594-2deb-4ff5-972a-a209361ec3eb"},"status":"finished","subject":{"reference":"Patient/0accf4d2-156a-425c-8400-33c073a0f661"},"type":[{"coding":[{"code":"185349003","display":"Encounter for check up (procedure)","system":"http://snomed.info/sct"}],"text":"Encounter for check up (procedure)"}]}},{"resource":{"class":{"code":"WELLNESS"},"id":"82ed6b28-1598-4e82-93fc-34048e5fca58","meta":{"lastUpdated":"2019-04-09T12:03:30.321762+00:00","versionId":"MTU1NDgxMTQxMDMyMTc2MjAwMA"},"participant":[{"individual":{"reference":"Practitioner/26c419ce-a137-417b-90ef-8da89cacc8e3"}}],"period":{"end":"2013-05-29T08:12:23-04:00","start":"2013-05-29T07:57:23-04:00"},"resourceType":"Encounter","serviceProvider":{"reference":"Organization/3c1a6594-2deb-4ff5-972a-a209361ec3eb"},"status":"finished","subject":{"reference":"Patient/0accf4d2-156a-425c-8400-33c073a0f661"},"type":[{"coding":[{"code":"185349003","display":"Encounter for check up (procedure)","system":"http://snomed.info/sct"}],"text":"Encounter for check up (procedure)"}]}},{"resource":{"class":{"code":"URGENTCARE"},"id":"862df6b3-760d-440b-94bf-820fd61e5804","meta":{"lastUpdated":"2019-04-09T12:03:36.516815+00:00","versionId":"MTU1NDgxMTQxNjUxNjgxNTAwMA"},"participant":[{"individual":{"reference":"Practitioner/4e75658e-2496-4900-a2a4-e8aa600269ed"}}],"period":{"end":"2018-05-30T08:12:23-04:00","start":"2018-05-30T07:57:23-04:00"},"resourceType":"Encounter","serviceProvider":{"reference":"Organization/057e5b30-6566-4cff-80cc-1e899ab80bae"},"status":"finished","subject":{"reference":"Patient/0accf4d2-156a-425c-8400-33c073a0f661"},"type":[{"coding":[{"code":"371883000","display":"Outpatient procedure (procedure)","system":"http://snomed.info/sct"}],"text":"Outpatient procedure (procedure)"}]}},{"resource":{"class":{"code":"URGENTCARE"},"id":"889ecb36-920b-47af-860a-17dca11fab43","meta":{"lastUpdated":"2019-04-09T12:03:30.326387+00:00","versionId":"MTU1NDgxMTQxMDMyNjM4NzAwMA"},"participant":[{"individual":{"reference":"Practitioner/4e75658e-2496-4900-a2a4-e8aa600269ed"}}],"period":{"end":"2013-07-31T08:12:23-04:00","start":"2013-07-31T07:57:23-04:00"},"resourceType":"Encounter","serviceProvider":{"reference":"Organization/057e5b30-6566-4cff-80cc-1e899ab80bae"},"status":"finished","subject":{"reference":"Patient/0accf4d2-156a-425c-8400-33c073a0f661"},"type":[{"coding":[{"code":"371883000","display":"Outpatient procedure (procedure)","system":"http://snomed.info/sct"}],"text":"Outpatient procedure (procedure)"}]}},{"resource":{"class":{"code":"ambulatory"},"id":"88a912f0-8104-4592-999f-14be09896a65","meta":{"lastUpdated":"2019-04-09T12:03:28.271294+00:00","versionId":"MTU1NDgxMTQwODI3MTI5NDAwMA"},"participant":[{"individual":{"reference":"Practitioner/26c419ce-a137-417b-90ef-8da89cacc8e3"}}],"period":{"end":"2011-06-21T08:12:23-04:00","start":"2011-06-21T07:57:23-04:00"},"reason":[{"coding":[{"code":"75498004","display":"Acute bacterial sinusitis (disorder)","system":"http://snomed.info/sct"}]}],"resourceType":"Encounter","serviceProvider":{"reference":"Organization/3c1a6594-2deb-4ff5-972a-a209361ec3eb"},"status":"finished","subject":{"reference":"Patient/0accf4d2-156a-425c-8400-33c073a0f661"},"type":[{"coding":[{"code":"185345009","display":"Encounter for symptom","system":"http://snomed.info/sct"}],"text":"Encounter for symptom"}]}},{"resource":{"class":{"code":"URGENTCARE"},"id":"8bcd7ef8-849d-4fee-82a6-3b55dbe39e49","meta":{"lastUpdated":"2019-04-09T12:03:32.369840+00:00","versionId":"MTU1NDgxMTQxMjM2OTg0MDAwMA"},"participant":[{"individual":{"reference":"Practitioner/4e75658e-2496-4900-a2a4-e8aa600269ed"}}],"period":{"end":"2014-07-23T08:12:23-04:00","start":"2014-07-23T07:57:23-04:00"},"resourceType":"Encounter","serviceProvider":{"reference":"Organization/057e5b30-6566-4cff-80cc-1e899ab80bae"},"status":"finished","subject":{"reference":"Patient/0accf4d2-156a-425c-8400-33c073a0f661"},"type":[{"coding":[{"code":"371883000","display":"Outpatient procedure (procedure)","system":"http://snomed.info/sct"}],"text":"Outpatient procedure (procedure)"}]}},{"resource":{"class":{"code":"WELLNESS"},"id":"8e01fdb7-6a37-4214-b94a-2e3930f287a4","meta":{"lastUpdated":"2019-04-09T12:03:34.437879+00:00","versionId":"MTU1NDgxMTQxNDQzNzg3OTAwMA"},"participant":[{"individual":{"reference":"Practitioner/26c419ce-a137-417b-90ef-8da89cacc8e3"}}],"period":{"end":"2016-06-15T08:12:23-04:00","start":"2016-06-15T07:57:23-04:00"},"resourceType":"Encounter","serviceProvider":{"reference":"Organization/3c1a6594-2deb-4ff5-972a-a209361ec3eb"},"status":"finished","subject":{"reference":"Patient/0accf4d2-156a-425c-8400-33c073a0f661"},"type":[{"coding":[{"code":"185349003","display":"Encounter for check up (procedure)","system":"http://snomed.info/sct"}],"text":"Encounter for check up (procedure)"}]}}],"link":[{"url":"https://syntheticmass.mitre.org/v1/fhir/Patient/0accf4d2-156a-425c-8400-33c073a0f661/$everything?_count=100&page_token=CoIBcHJvamVjdHMvc3ludGhlYS9sb2NhdGlvbnMvdXMtY2VudHJhbDEvZGF0YXNldHMvMjAxOTAyL2ZoaXJTdG9yZXMvc3ludGhldGljLW1hc3MvZmhpci9QYXRpZW50LzBhY2NmNGQyLTE1NmEtNDI1Yy04NDAwLTMzYzA3M2EwZjY2MSDIAQ%3D%3D","relation":"previous"},{"url":"https://syntheticmass.mitre.org/v1/fhir/Patient/0accf4d2-156a-425c-8400-33c073a0f661/$everything?_count=100&page_token=CoIBcHJvamVjdHMvc3ludGhlYS9sb2NhdGlvbnMvdXMtY2VudHJhbDEvZGF0YXNldHMvMjAxOTAyL2ZoaXJTdG9yZXMvc3ludGhldGljLW1hc3MvZmhpci9QYXRpZW50LzBhY2NmNGQyLTE1NmEtNDI1Yy04NDAwLTMzYzA3M2EwZjY2MSCQAw%3D%3D","relation":"next"}],"total":1893}
