{"resourceType":"Bundle","type":"searchset","entry":[{"resource":{"class":{"code":"WELLNESS"},"id":"9668d183-0ecb-460f-9176-03f972c126e8","meta":{"lastUpdated":"2019-04-09T12:03:33.413878+00:00","versionId":"MTU1NDgxMTQxMzQxMzg3ODAwMA"},"participant":[{"individual":{"reference":"Practitioner/26c419ce-a137-417b-90ef-8da89cacc8e3"}}],"period":{"end":"2016-01-20T07:27:23-05:00","start":"2016-01-20T06:57:23-05:00"},"resourceType":"Encounter","serviceProvider":{"reference":"Organization/3c1a6594-2deb-4ff5-972a-a209361ec3eb"},"status":"finished","subject":{"reference":"Patient/0accf4d2-156a-425c-8400-33c073a0f661"},"type":[{"coding":[{"code":"185349003","display":"Encounter for check up (procedure)","system":"http://snomed.info/sct"}],"text":"Encounter for check up (procedure)"}]}},{"resource":{"class":{"code":"WELLNESS"},"id":"96d3d298-de8c-4d83-a94b-905a48911d5c","meta":{"lastUpdated":"2019-04-09T12:03:32.359434+00:00","versionId":"MTU1NDgxMTQxMjM1OTQzNDAwMA"},"participant":[{"individual":{"reference":"Practitioner/26c419ce-a137-417b-90ef-8da89cacc8e3"}}],"period":{"end":"2014-04-23T08:27:23-04:00","start":"2014-04-23T07:57:23-04:00"},"resourceType":"Encounter","serviceProvider":{"reference":"Organization/3c1a6594-2deb-4ff5-972a-a209361ec3eb"},"status":"finished","subject":{"reference":"Patient/0accf4d2-156a-425c-8400-33c073a0f661"},"type":[{"coding":[{"code":"185349003","display":"Encounter for check up (procedure)","system":"http://snomed.info/sct"}],"text":"Encounter for check up (procedure)"}]}},{"resource":{"class":{"code":"WELLNESS"},"id":"983cf644-a232-47e1-baa4-44f58152d4d3","meta":{"lastUpdated":"2019-04-09T12:03:29.353354+00:00","versionId":"MTU1NDgxMTQwOTM1MzM1NDAwMA"},"participant":[{"individual":{"reference":"Practitioner/26c419ce-a137-417b-90ef-8da89cacc8e3"}}],"period":{"end":"2012-06-06T08:27:23-04:00","start":"2012-06-06T07:57:23-04:00"},"resourceType":"Encounter","serviceProvider":{"reference":"Organization/3c1a6594-2deb-4ff5-972a-a209361ec3eb"},"status":"finished","subject":{"reference":"Patient/0accf4d2-156a-425c-8400-33c073a0f661"},"type":[{"coding":[{"code":"185349003","display":"Encounter for check up (procedure)","system":"http://snomed.info/sct"}],"text":"Encounter for check up (procedure)"}]}},{"resource":{"class":{"code":"ambulatory"},"id":"9a55171b-3a3f-4a74-8e25-9f697241c00e","meta":{"lastUpdated":"2019-04-09T12:03:34.437205+00:00","versionId":"MTU1NDgxMTQxNDQzNzIwNTAwMA"},"participant":[{"individual":{"reference":"Practitioner/26c419ce-a137-417b-90ef-8da89cacc8e3"}}],"period":{"end":"2016-01-24T07:12:23-05:00","start":"2016-01-24T06:57:23-05:00"},"reason":[{"coding":[{"code":"444814009","display":"Viral sinusitis (disorder)","system":"http://snomed.info/sct"}]}],"resourceType":"Encounter","serviceProvider":{"reference":"Organization/3c1a6594-2deb-4ff5-972a-a209361ec3eb"},"status":"finished","subject":{"reference":"Patient/0accf4d2-156a-425c-8400-33c073a0f661"},"type":[{"coding":[{"code":"185345009","display":"Encounter for symptom","system":"http://snomed.info/sct"}],"text":"Encounter for symptom"}]}},{"resource":{"class":{"code":"WELLNESS"},"id":"9a753b25-a5a3-410a-b2ec-3bacac1203c3","meta":{"lastUpdated":"2019-04-09T12:03:35.495654+00:00","versionId":"MTU1NDgxMTQxNTQ5NTY1NDAwMA"},"participant":[{"individual":{"reference":"Practitioner/26c419ce-a137-417b-90ef-8da89cacc8e3"}}],"period":{"end":"2017-06-14T08:12:23-04:00","start":"2017-06-14T07:57:23-04:00"},"resourceType":"Encounter","serviceProvider":{"reference":"Organization/3c1a6594-2deb-4ff5-972a-a209361ec3eb"},"status":"finished","subject":{"reference":"Patient/0accf4d2-156a-425c-8400-33c073a0f661"},"type":[{"coding":[{"code":"185349003","display":"Encounter for check up (procedure)","system":"http://snomed.info/sct"}],"text":"Encounter for check up (procedure)"}]}},{"resource":{"class":{"code":"URGENTCARE"},"id":"9a9c6421-dabf-41e7-8693-1f6b7741eb88","meta":{"lastUpdated":"2019-04-09T12:03:33.404902+00:00","versionId":"MTU1NDgxMTQxMzQwNDkwMjAwMA"},"participant":[{"individual":{"reference":"Practitioner/4e75658e-2496-4900-a2a4-e8aa600269ed"}}],"period":{"end":"2015-09-16T08:12:23-04:00","start":"2015-09-16T07:57:23-04:00"},"resourceType":"Encounter","serviceProvider":{"reference":"Organization/057e5b30-6566-4cff-80cc-1e899ab80bae"},"status":"finished","subject":{"reference":"Patient/0accf4d2-156a-425c-8400-33c073a0f661"},"type":[{"coding":[{"code":"371883000","display":"Outpatient procedure (procedure)","system":"http://snomed.info/sct"}],"text":"Outpatient procedure (procedure)"}]}},{"resource":{"class":{"code":"URGENTCARE"},"id":"9b02f78e-6222-4c2e-afa3-3182f4107b52","meta":{"lastUpdated":"2019-04-09T12:03:29.352524+00:00","versionId":"MTU1NDgxMTQwOTM1MjUyNDAwMA"},"participant":[{"individual":{"reference":"Practitioner/4e75658e-2496-4900-a2a4-e8aa600269ed"}}],"period":{"end":"2012-08-01T08:12:23-04:00","start":"2012-08-01T07:57:23-04:00"},"resourceType":"Encounter","serviceProvider":{"reference":"Organization/057e5b30-6566-4cff-80cc-1e899ab80bae"},"status":"finished","subject":{"reference":"Patient/0accf4d2-156a-425c-8400-33c073a0f661"},"type":[{"coding":[{"code":"371883000","display":"Outpatient procedure (procedure)","system":"http://snomed.info/sct"}],"text":"Outpatient procedure (procedure)"}]}},{"resource":{"class":{"code":"URGENTCARE"},"id":"9cb7d77f-fbe3-45f2-ba97-9d9460319b52","meta":{"lastUpdated":"2019-04-09T12:03:35.490185+00:00","versionId":"MTU1NDgxMTQxNTQ5MDE4NTAwMA"},"participant":[{"individual":{"reference":"Practitioner/4e75658e-2496-4900-a2a4-e8aa600269ed"}}],"period":{"end":"2017-02-15T07:12:23-05:00","start":"2017-02-15T06:57:23-05:00"},"resourceType":"Encounter","serviceProvider":{"reference":"Organization/057e5b30-6566-4cff-80cc-1e899ab80bae"},"status":"finished","subject":{"reference":"Patient/0accf4d2-156a-425c-8400-33c073a0f661"},"type":[{"coding":[{"code":"371883000","display":"Outpatient procedure (procedure)","system":"http://snomed.info/sct"}],"text":"Outpatient procedure (procedure)"}]}},{"resource":{"class":{"code":"WELLNESS"},"id":"a049b370-89d5-435e-86e2-5a3132d018a7","meta":{"lastUpdated":"2019-04-09T12:03:26.154663+00:00","versionId":"MTU1NDgxMTQwNjE1NDY2MzAwMA"},"participant":[{"individual":{"reference":"Practitioner/26c419ce-a137-417b-90ef-8da89cacc8e3"}}],"period":{"end":"1986-07-09T08:12:23-04:00","start":"1986-07-09T07:57:23-04:00"},"resourceType":"Encounter","serviceProvider":{"reference":"Organization/3c1a6594-2deb-4ff5-972a-a209361ec3eb"},"status":"finished","subject":{"reference":"Patient/0accf4d2-156a-425c-8400-33c073a0f661"},"type":[{"coding":[{"code":"185349003","display":"Encounter for check up (procedure)","system":"http://snomed.info/sct"}],"text":"Encounter for check up (procedure)"}]}},{"resource":{"class":{"code":"WELLNESS"},"id":"a0cf96ce-6527-4033-9f43-741b7643937a","meta":{"lastUpdated":"2019-04-09T12:03:35.495627+00:00","versionId":"MTU1NDgxMTQxNTQ5NTYyNzAwMA"},"participant":[{"individual":{"reference":"Practitioner/26c419ce-a137-417b-90ef-8da89cacc8e3"}}],"period":{"end":"2017-04-12T08:12:23-04:00","start":"2017-04-12T07:57:23-04:00"},"resourceType":"Encounter","serviceProvider":{"reference":"Organization/3c1a6594-2deb-4ff5-972a-a209361ec3eb"},"status":"finished","subject":{"reference":"Patient/0accf4d2-156a-425c-8400-33c073a0f661"},"type":[{"coding":[{"code":"185349003","display":"Encounter for check up (procedure)","system":"http://snomed.info/sct"}],"text":"Encounter for check up (procedure)"}]}},{"resource":{"class":{"code":"URGENTCARE"},"id":"a1a516bd-db67-4225-b01b-231845332d1e","meta":{"lastUpdated":"2019-04-09T12:03:36.481370+00:00","versionId":"MTU1NDgxMTQxNjQ4MTM3MDAwMA"},"participant":[{"individual":{"reference":"Practitioner/4e75658e-2496-4900-a2a4-e8aa600269ed"}}],"period":{"end":"2017-10-04T08:12:23-04:00","start":"2017-10-04T07:57:23-04:00"},"resourceType":"Encounter","serviceProvider":{"reference":"Organization/057e5b30-6566-4cff-80cc-1e899ab80bae"},"status":"finished","subject":{"reference":"Patient/0accf4d2-156a-425c-8400-33c073a0f661"},"type":[{"coding":[{"code":"371883000","display":"Outpatient procedure (procedure)","system":"http://snomed.info/sct"}],"text":"Outpatient procedure (procedure)"}]}},{"resource":{"class":{"code":"URGENTCARE"},"id":"a2a6f368-2d32-49d6-a4a1-600191a86bae","meta":{"lastUpdated":"2019-04-09T12:03:28.272782+00:00","versionId":"MTU1NDgxMTQwODI3Mjc4MjAwMA"},"participant":[{"individual":{"reference":"Practitioner/4e75658e-2496-4900-a2a4-e8aa600269ed"}}],"period":{"end":"2011-06-29T08:12:23-04:00","start":"2011-06-29T07:57:23-04:00"},"resourceType":"Encounter","serviceProvider":{"reference":"Organization/057e5b30-6566-4cff-80cc-1e899ab80bae"},"status":"finished","subject":{"reference":"Patient/0accf4d2-156a-425c-8400-33c073a0f661"},"type":[{"coding":[{"code":"371883000","display":"Outpatient procedure (procedure)","system":"http://snomed.info/sct"}],"text":"Outpatient procedure (procedure)"}]}},{"resource":{"class":{"code":"WELLNESS"},"id":"a40b9b1c-62fc-40a3-8fe5-d3027e95acde","meta":{"lastUpdated":"2019-04-09T12:03:26.165197+00:00","versionId":"MTU1NDgxMTQwNjE2NTE5NzAwMA"},"participant":[{"individual":{"reference":"Practitioner/26c419ce-a137-417b-90ef-8da89cacc8e3"}}],"period":{"end":"1991-07-24T08:12:23-04:00","start":"1991-07-24T07:57:23-04:00"},"resourceType":"Encounter","serviceProvider":{"reference":"Organization/3c1a6594-2deb-4ff5-972a-a209361ec3eb"},"status":"finished","subject":{"reference":"Patient/0accf4d2-156a-425c-8400-33c073a0f661"},"type":[{"coding":[{"code":"185349003","display":"Encounter for check up (procedure)","system":"http://snomed.info/sct"}],"text":"Encounter for check up (procedure)"}]}},{"resource":{"class":{"code":"WELLNESS"},"id":"a88ca6f2-6f24-43ec-a3c6-4d15558840f3","meta":{"lastUpdated":"2019-04-09T12:03:33.413877+00:00","versionId":"MTU1NDgxMTQxMzQxMzg3NzAwMA"},"participant":[{"individual":{"reference":"Practitioner/26c419ce-a137-417b-90ef-8da89cacc8e3"}}],"period":{"end":"2015-10-14T08:27:23-04:00","start":"2015-10-14T07:57:23-04:00"},"resourceType":"Encounter","serviceProvider":{"reference":"Organization/3c1a6594-2deb-4ff5-972a-a209361ec3eb"},"status":"finished","subject":{"reference":"Patient/0accf4d2-156a-425c-8400-33c073a0f661"},"type":[{"coding":[{"code":"185349003","display":"Encounter for check up (procedure)","system":"http://snomed.info/sct"}],"text":"Encounter for check up (procedure)"}]}},{"resource":{"class":{"code":"URGENTCARE"},"id":"a9f1cc41-9d96-423e-b29f-0031f348e928","meta":{"lastUpdated":"2019-04-09T12:03:27.215612+00:00","versionId":"MTU1NDgxMTQwNzIxNTYxMjAwMA"},"participant":[{"individual":{"reference":"Practitioner/4e75658e-2496-4900-a2a4-e8aa600269ed"}}],"period":{"end":"2010-03-17T08:12:23-04:00","start":"2010-03-17T07:57:23-04:00"},"resourceType":"Encounter","serviceProvider":{"reference":"Organization/057e5b30-6566-4cff-80cc-1e899ab80bae"},"status":"finished","subject":{"reference":"Patient/0accf4d2-156a-425c-8400-33c073a0f661"},"type":[{"coding":[{"code":"371883000","display":"Outpatient procedure (procedure)","system":"http://snomed.info/sct"}],"text":"Outpatient procedure (procedure)"}]}},{"resource":{"class":{"code":"URGENTCARE"},"id":"aa121434-f27f-43c7-9ed4-e2be172b229b","meta":{"lastUpdated":"2019-04-09T12:03:30.321670+00:00","versionId":"MTU1NDgxMTQxMDMyMTY3MDAwMA"},"participant":[{"individual":{"reference":"Practitioner/4e75658e-2496-4900-a2a4-e8aa600269ed"}}],"period":{"end":"2013-05-01T08:12:23-04:00","start":"2013-05-01T07:57:23-04:00"},"resourceType":"Encounter","serviceProvider":{"reference":"Organization/057e5b30-6566-4cff-80cc-1e899ab80bae"},"status":"finished","subject":{"reference":"Patient/0accf4d2-156a-425c-8400-33c073a0f661"},"type":[{"coding":[{"code":"371883000","display":"Outpatient procedure (procedure)","system":"http://snomed.info/sct"}],"text":"Outpatient procedure (procedure)"}]}},{"resource":{"class":{"code":"URGENTCARE"},"id":"ab643349-14ef-4e2f-92ea-f9e2ec1972c0","meta":{"lastUpdated":"2019-04-09T12:03:29.351158+00:00","versionId":"MTU1NDgxMTQwOTM1MTE1ODAwMA"},"participant":[{"individual":{"reference":"Practitioner/4e75658e-2496-4900-a2a4-e8aa600269ed"}}],"period":{"end":"2012-10-03T08:12:23-04:00","start":"2012-10-03T07:57:23-04:00"},"resourceType":"Encounter","serviceProvider":{"reference":"Organization/057e5b30-6566-4cff-80cc-1e899ab80bae"},"status":"finished","subject":{"reference":"Patient/0accf4d2-156a-425c-8400-33c073a0f661"},"type":[{"coding":[{"code":"371883000","display":"Outpatient procedure (procedure)","system":"http://snomed.info/sct"}],"text":"Outpatient procedure (procedure)"}]}},{"resource":{"class":{"code":"WELLNESS"},"id":"ab9f704d-0abf-4902-9a82-2209366b645a","meta":{"lastUpdated":"2019-04-09T12:03:26.198469+00:00","versionId":"MTU1NDgxMTQwNjE5ODQ2OTAwMA"},"participant":[{"individual":{"reference":"Practitioner/26c419ce-a137-417b-90ef-8da89cacc8e3"}}],"period":{"end":"2009-09-16T08:27:23-04:00","start":"2009-09-16T07:57:23-04:00"},"resourceType":"Encounter","serviceProvider":{"reference":"Organization/3c1a6594-2deb-4ff5-972a-a209361ec3eb"},"status":"finished","subject":{"reference":"Patient/0accf4d2-156a-425c-8400-33c073a0f661"},"type":[{"coding":[{"code":"185349003","display":"Encounter for check up (procedure)","system":"http://snomed.info/sct"}],"text":"Encounter for check up (procedure)"}]}},{"resource":{"class":{"code":"ambulatory"},"id":"ad8b29e1-4612-4680-84a5-da3cebce6886","meta":{"lastUpdated":"2019-04-09T12:03:26.160175+00:00","versionId":"MTU1NDgxMTQwNjE2MDE3NTAwMA"},"participant":[{"individual":{"reference":"Practitioner/26c419ce-a137-417b-90ef-8da89cacc8e3"}}],"period":{"end":"2009-04-21T08:34:23-04:00","start":"2009-04-21T07:57:23-04:00"},"reason":[{"coding":[{"code":"10509002","display":"Acute bronchitis (disorder)","system":"http://snomed.info/sct"}]}],"resourceType":"Encounter","serviceProvider":{"reference":"Organization/3c1a6594-2deb-4ff5-972a-a209361ec3eb"},"status":"finished","subject":{"reference":"Patient/0accf4d2-156a-425c-8400-33c073a0f661"},"type":[{"coding":[{"code":"185345009","display":"Encounter for symptom","system":"http://snomed.info/sct"}],"text":"Encounter for symptom"}]}},{"resource":{"class":{"code":"URGENTCARE"},"id":"ad9f4a6e-a42b-46f9-bd43-05b9a9cc7556","meta":{"lastUpdated":"2019-04-09T12:03:32.359701+00:00","versionId":"MTU1NDgxMTQxMjM1OTcwMTAwMA"},"participant":[{"individual":{"reference":"Practitioner/4e75658e-2496-4900-a2a4-e8aa600269ed"}}],"period":{"end":"2014-05-21T08:12:23-04:00","start":"2014-05-21T07:57:23-04:00"},"resourceType":"Encounter","serviceProvider":{"reference":"Organization/057e5b30-6566-4cff-80cc-1e899ab80bae"},"status":"finished","subject":{"reference":"Patient/0accf4d2-156a-425c-8400-33c073a0f661"},"type":[{"coding":[{"code":"371883000","display":"Outpatient procedure (procedure)","system":"http://snomed.info/sct"}],"text":"Outpatient procedure (procedure)"}]}},{"resource":{"class":{"code":"URGENTCARE"},"id":"b488ed52-4836-40bd-a6a1-863655aef9b4","meta":{"lastUpdated":"2019-04-09T12:03:35.490183+00:00","versionId":"MTU1NDgxMTQxNTQ5MDE4MzAwMA"},"participant":[{"individual":{"reference":"Practitioner/4e75658e-2496-4900-a2a4-e8aa600269ed"}}],"period":{"end":"2017-03-08T07:12:23-05:00","start":"2017-03-08T06:57:23-05:00"},"resourceType":"Encounter","serviceProvider":{"reference":"Organization/057e5b30-6566-4cff-80cc-1e899ab80bae"},"status":"finished","subject":{"reference":"Patient/0accf4d2-156a-425c-8400-33c073a0f661"},"type":[{"coding":[{"code":"371883000","display":"Outpatient procedure (procedure)","system":"http://snomed.info/sct"}],"text":"Outpatient procedure (procedure)"}]}},{"resource":{"class":{"code":"URGENTCARE"},"id":"b622491d-46a5-4f8f-8948-e869329c0d47","meta":{"lastUpdated":"2019-04-09T12:03:36.481371+00:00","versionId":"MTU1NDgxMTQxNjQ4MTM3MTAwMA"},"participant":[{"individual":{"reference":"Practitioner/4e75658e-2496-4900-a2a4-e8aa600269ed"}}],"period":{"end":"2017-09-06T08:12:23-04:00","start":"2017-09-06T07:57:23-04:00"},"resourceType":"Encounter","serviceProvider":{"reference":"Organization/057e5b30-6566-4cff-80cc-1e899ab80bae"},"status":"finished","subject":{"reference":"Patient/0accf4d2-156a-425c-8400-33c073a0f661"},"type":[{"coding":[{"code":"371883000","display":"Outpatient procedure (procedure)","system":"http://snomed.info/sct"}],"text":"Outpatient procedure (procedure)"}]}},{"resource":{"class":{"code":"WELLNESS"},"id":"b70ffe0b-4ae1-4cd1-bf27-b88f0d56f5c7","meta":{"lastUpdated":"2019-04-09T12:03:27.220188+00:00","versionId":"MTU1NDgxMTQwNzIyMDE4ODAwMA"},"participant":[{"individual":{"reference":"Practitioner/26c419ce-a137-417b-90ef-8da89cacc8e3"}}],"period":{"end":"2010-12-08T07:12:23-05:00","start":"2010-12-08T06:57:23-05:00"},"resourceType":"Encounter","serviceProvider":{"reference":"Organization/3c1a6594-2deb-4ff5-972a-a209361ec3eb"},"status":"finished","subject":{"reference":"Patient/0accf4d2-156a-425c-8400-33c073a0f661"},"type":[{"coding":[{"code":"185349003","display":"Encounter for check up (procedure)","system":"http://snomed.info/sct"}],"text":"Encounter for check up (procedure)"}]}},{"resource":{"class":{"code":"URGENTCARE"},"id":"b74547b8-e7e4-45fe-9f5c-496caddd1a7a","meta":{"lastUpdated":"2019-04-09T12:03:26.160946+00:00","versionId":"MTU1NDgxMTQwNjE2MDk0NjAwMA"},"participant":[{"individual":{"reference":"Practitioner/4e75658e-2496-4900-a2a4-e8aa600269ed"}}],"period":{"end":"2009-05-20T08:12:23-04:00","start":"2009-05-20T07:57:23-04:00"},"resourceType":"Encounter","serviceProvider":{"reference":"Organization/057e5b30-6566-4cff-80cc-1e899ab80bae"},"status":"finished","subject":{"reference":"Patient/0accf4d2-156a-425c-8400-33c073a0f661"},"type":[{"coding":[{"code":"371883000","display":"Outpatient procedure (procedure)","system":"http://snomed.info/sct"}],"text":"Outpatient procedure (procedure)"}]}},{"resource":{"class":{"code":"URGENTCARE"},"id":"b90ab82b-07e6-4d32-a19f-1a8e536b124e","meta":{"lastUpdated":"2019-04-09T12:03:36.487552+00:00","versionId":"MTU1NDgxMTQxNjQ4NzU1MjAwMA"},"participant":[{"individual":{"reference":"Practitioner/4e75658e-2496-4900-a2a4-e8aa600269ed"}}],"period":{"end":"2018-01-03T07:12:23-05:00","start":"2018-01-03T06:57:23-05:00"},"resourceType":"Encounter","serviceProvider":{"reference":"Organization/057e5b30-6566-4cff-80cc-1e899ab80bae"},"status":"finished","subject":{"reference":"Patient/0accf4d2-156a-425c-8400-33c073a0f661"},"type":[{"coding":[{"code":"371883000","display":"Outpatient procedure (procedure)","system":"http://snomed.info/sct"}],"text":"Outpatient procedure (procedure)"}]}},{"resource":{"class":{"code":"WELLNESS"},"id":"c0d2a28c-a94a-4079-98f9-d64d5827a2da","meta":{"lastUpdated":"2019-04-09T12:03:27.236104+00:00","versionId":"MTU1NDgxMTQwNzIzNjEwNDAwMA"},"participant":[{"individual":{"reference":"Practitioner/26c419ce-a137-417b-90ef-8da89cacc8e3"}}],"period":{"end":"2011-01-12T07:27:23-05:00","start":"2011-01-12T06:57:23-05:00"},"resourceType":"Encounter","serviceProvider":{"reference":"Organization/3c1a6594-2deb-4ff5-972a-a209361ec3eb"},"status":"finished","subject":{"reference":"Patient/0accf4d2-156a-425c-8400-33c073a0f661"},"type":[{"coding":[{"code":"185349003","display":"Encounter for check up (procedure)","system":"http://snomed.info/sct"}],"text":"Encounter for check up (procedure)"}]}},{"resource":{"class":{"code":"WELLNESS"},"id":"c7f341ff-b544-4a41-ac27-38dd36d17410","meta":{"lastUpdated":"2019-04-09T12:03:29.360598+00:00","versionId":"MTU1NDgxMTQwOTM2MDU5ODAwMA"},"participant":[{"individual":{"reference":"Practitioner/26c419ce-a137-417b-90ef-8da89cacc8e3"}}],"period":{"end":"2012-08-29T08:12:23-04:00","start":"2012-08-29T07:57:23-04:00"},"resourceType":"Encounter","serviceProvider":{"reference":"Organization/3c1a6594-2deb-4ff5-972a-a209361ec3eb"},"status":"finished","subject":{"reference":"Patient/0accf4d2-156a-425c-8400-33c073a0f661"},"type":[{"coding":[{"code":"185349003","display":"Encounter for check up (procedure)","system":"http://snomed.info/sct"}],"text":"Encounter for check up (procedure)"}]}},{"resource":{"class":{"code":"WELLNESS"},"id":"c871699c-6149-4fff-b0e3-59e3c5ec87b0","meta":{"lastUpdated":"2019-04-09T12:03:32.396293+00:00","versionId":"MTU1NDgxMTQxMjM5NjI5MzAwMA"},"participant":[{"individual":{"reference":"Practitioner/26c419ce-a137-417b-90ef-8da89cacc8e3"}}],"period":{"end":"2015-02-25T07:12:23-05:00","start":"2015-02-25T06:57:23-05:00"},"resourceType":"Encounter","serviceProvider":{"reference":"Organization/3c1a6594-2deb-4ff5-972a-a209361ec3eb"},"status":"finished","subject":{"reference":"Patient/0accf4d2-156a-425c-8400-33c073a0f661"},"type":[{"coding":[{"code":"185349003","display":"Encounter for check up (procedure)","system":"http://snomed.info/sct"}],"text":"Encounter for check up (procedure)"}]}},{"resource":{"class":{"code":"WELLNESS"},"id":"c8f12208-a5f5-41c8-8276-d3c02268d3c0","meta":{"lastUpdated":"2019-04-09T12:03:30.347144+00:00","versionId":"MTU1NDgxMTQxMDM0NzE0NDAwMA"},"participant":[{"individual":{"reference":"Practitioner/26c419ce-a137-417b-90ef-8da89cacc8e3"}}],"period":{"end":"2013-03-27T08:27:23-04:00","start":"2013-03-27T07:57:23-04:00"},"resourceType":"Encounter","serviceProvider":{"reference":"Organization/3c1a6594-2deb-4ff5-972a-a209361ec3eb"},"status":"finished","subject":{"reference":"Patient/0accf4d2-156a-425c-8400-33c073a0f661"},"type":[{"coding":[{"code":"185349003","display":"Encounter for check up (procedure)","system":"http://snomed.info/sct"}],"text":"Encounter for check up (procedure)"}]}},{"resource":{"class":{"code":"ambulatory"},"id":"cc495b5d-fe0c-4374-88c7-52e1fea427a3","meta":{"lastUpdated":"2019-04-09T12:03:26.159402+00:00","versionId":"MTU1NDgxMTQwNjE1OTQwMjAwMA"},"participant":[{"individual":{"reference":"Practitioner/26c419ce-a137-417b-90ef-8da89cacc8e3"}}],"period":{"end":"1988-05-10T08:12:23-04:00","start":"1988-05-10T07:57:23-04:00"},"resourceType":"Encounter","serviceProvider":{"reference":"Organization/3c1a6594-2deb-4ff5-972a-a209361ec3eb"},"status":"finished","subject":{"reference":"Patient/0accf4d2-156a-425c-8400-33c073a0f661"},"type":[{"coding":[{"code":"185347001","display":"Encounter for problem","system":"http://snomed.info/sct"}],"text":"Encounter for problem"}]}},{"resource":{"class":{"code":"URGENTCARE"},"id":"cef4fe38-4e76-4cd2-8a35-12ef9be897a8","meta":{"lastUpdated":"2019-04-09T12:03:33.407760+00:00","versionId":"MTU1NDgxMTQxMzQwNzc2MDAwMA"},"participant":[{"individual":{"reference":"Practitioner/4e75658e-2496-4900-a2a4-e8aa600269ed"}}],"period":{"end":"2015-12-16T07:12:23-05:00","start":"2015-12-16T06:57:23-05:00"},"resourceType":"Encounter","serviceProvider":{"reference":"Organization/057e5b30-6566-4cff-80cc-1e899ab80bae"},"status":"finished","subject":{"reference":"Patient/0accf4d2-156a-425c-8400-33c073a0f661"},"type":[{"coding":[{"code":"371883000","display":"Outpatient procedure (procedure)","system":"http://snomed.info/sct"}],"text":"Outpatient procedure (procedure)"}]}},{"resource":{"class":{"code":"WELLNESS"},"id":"cfea662e-7d63-49ea-b359-197b2721f2cd","meta":{"lastUpdated":"2019-04-09T12:03:26.169995+00:00","versionId":"MTU1NDgxMTQwNjE2OTk5NTAwMA"},"participant":[{"individual":{"reference":"Practitioner/26c419ce-a137-417b-90ef-8da89cacc8e3"}}],"period":{"end":"2009-04-22T08:27:23-04:00","start":"2009-04-22T07:57:23-04:00"},"resourceType":"Encounter","serviceProvider":{"reference":"Organization/3c1a6594-2deb-4ff5-972a-a209361ec3eb"},"status":"finished","subject":{"reference":"Patient/0accf4d2-156a-425c-8400-33c073a0f661"},"type":[{"coding":[{"code":"185349003","display":"Encounter for check up (procedure)","system":"http://snomed.info/sct"}],"text":"Encounter for check up (procedure)"}]}},{"resource":{"class":{"code":"URGENTCARE"},"id":"d09e5906-2490-46cb-8dcd-034abc113b68","meta":{"lastUpdated":"2019-04-09T12:03:28.267990+00:00","versionId":"MTU1NDgxMTQwODI2Nzk5MDAwMA"},"participant":[{"individual":{"reference":"Practitioner/4e75658e-2496-4900-a2a4-e8aa600269ed"}}],"period":{"end":"2011-08-10T08:12:23-04:00","start":"2011-08-10T07:57:23-04:00"},"resourceType":"Encounter","serviceProvider":{"reference":"Organization/057e5b30-6566-4cff-80cc-1e899ab80bae"},"status":"finished","subject":{"reference":"Patient/0accf4d2-156a-425c-8400-33c073a0f661"},"type":[{"coding":[{"code":"371883000","display":"Outpatient procedure (procedure)","system":"http://snomed.info/sct"}],"text":"Outpatient procedure (procedure)"}]}},{"resource":{"class":{"code":"URGENTCARE"},"id":"d28d4ab9-723e-476b-8ef8-792596d97b23","meta":{"lastUpdated":"2019-04-09T12:03:31.375492+00:00","versionId":"MTU1NDgxMTQxMTM3NTQ5MjAwMA"},"participant":[{"individual":{"reference":"Practitioner/4e75658e-2496-4900-a2a4-e8aa600269ed"}}],"period":{"end":"2014-03-26T08:12:23-04:00","start":"2014-03-26T07:57:23-04:00"},"resourceType":"Encounter","serviceProvider":{"reference":"Organization/057e5b30-6566-4cff-80cc-1e899ab80bae"},"status":"finished","subject":{"reference":"Patient/0accf4d2-156a-425c-8400-33c073a0f661"},"type":[{"coding":[{"code":"371883000","display":"Outpatient procedure (procedure)","system":"http://snomed.info/sct"}],"text":"Outpatient procedure (procedure)"}]}},{"resource":{"class":{"code":"URGENTCARE"},"id":"d2b2a75a-b0fe-45fb-bf04-5d6c9a54dd38","meta":{"lastUpdated":"2019-04-09T12:03:28.271860+00:00","versionId":"MTU1NDgxMTQwODI3MTg2MDAwMA"},"participant":[{"individual":{"reference":"Practitioner/4e75658e-2496-4900-a2a4-e8aa600269ed"}}],"period":{"end":"2011-06-08T08:12:23-04:00","start":"2011-06-08T07:57:23-04:00"},"resourceType":"Encounter","serviceProvider":{"reference":"Organization/057e5b30-6566-4cff-80cc-1e899ab80bae"},"status":"finished","subject":{"reference":"Patient/0accf4d2-156a-425c-8400-33c073a0f661"},"type":[{"coding":[{"code":"371883000","display":"Outpatient procedure (procedure)","system":"http://snomed.info/sct"}],"text":"Outpatient procedure (procedure)"}]}},{"resource":{"class":{"code":"URGENTCARE"},"id":"d5c6f699-edd0-4665-9557-dbd9ea90ff5b","meta":{"lastUpdated":"2019-04-09T12:03:32.381129+00:00","versionId":"MTU1NDgxMTQxMjM4MTEyOTAwMA"},"participant":[{"individual":{"reference":"Practitioner/4e75658e-2496-4900-a2a4-e8aa600269ed"}}],"period":{"end":"2014-10-22T08:12:23-04:00","start":"2014-10-22T07:57:23-04:00"},"resourceType":"Encounter","serviceProvider":{"reference":"Organization/057e5b30-6566-4cff-80cc-1e899ab80bae"},"status":"finished","subject":{"reference":"Patient/0accf4d2-156a-425c-8400-33c073a0f661"},"type":[{"coding":[{"code":"371883000","display":"Outpatient procedure (procedure)","system":"http://snomed.info/sct"}],"text":"Outpatient procedure (procedure)"}]}},{"resource":{"class":{"code":"WELLNESS"},"id":"d8e5cd14-488a-4d6f-a12a-40c60610b517","meta":{"lastUpdated":"2019-04-09T12:03:30.347145+00:00","versionId":"MTU1NDgxMTQxMDM0NzE0NTAwMA"},"participant":[{"individual":{"reference":"Practitioner/26c419ce-a137-417b-90ef-8da89cacc8e3"}}],"period":{"end":"2013-08-07T08:27:23-04:00","start":"2013-08-07T07:57:23-04:00"},"resourceType":"Encounter","serviceProvider":{"reference":"Organization/3c1a6594-2deb-4ff5-972a-a209361ec3eb"},"status":"finished","subject":{"reference":"Patient/0accf4d2-156a-425c-8400-33c073a0f661"},"type":[{"coding":[{"code":"185349003","display":"Encounter for check up (procedure)","system":"http://snomed.info/sct"}],"text":"Encounter for check up (procedure)"}]}},{"resource":{"class":{"code":"WELLNESS"},"id":"db67f599-7a90-4feb-b5f1-771cca9c5269","meta":{"lastUpdated":"2019-04-09T12:03:37.503283+00:00","versionId":"MTU1NDgxMTQxNzUwMzI4MzAwMA"},"participant":[{"individual":{"reference":"Practitioner/26c419ce-a137-417b-90ef-8da89cacc8e3"}}],"period":{"end":"2018-12-26T07:12:23-05:00","start":"2018-12-26T06:57:23-05:00"},"resourceType":"Encounter","serviceProvider":{"reference":"Organization/3c1a6594-2deb-4ff5-972a-a209361ec3eb"},"status":"finished","subject":{"reference":"Patient/0accf4d2-156a-425c-8400-33c073a0f661"},"type":[{"coding":[{"code":"185349003","display":"Encounter for check up (procedure)","system":"http://snomed.info/sct"}],"text":"Encounter for check up (procedure)"}]}},{"resource":{"class":{"code":"emergency"},"id":"dd1f80ff-0a95-4548-b62c-1d8a683f17f7","meta":{"lastUpdated":"2019-04-09T12:03:32.374753+00:00","versionId":"MTU1NDgxMTQxMjM3NDc1MzAwMA"},"participant":[{"individual":{"reference":"Practitioner/26c419ce-a137-417b-90ef-8da89cacc8e3"}}],"period":{"end":"2014-09-25T09:11:23-04:00","start":"2014-09-25T07:57:23-04:00"},"resourceType":"Encounter","serviceProvider":{"reference":"Organization/3c1a6594-2deb-4ff5-972a-a209361ec3eb"},"status":"finished","subject":{"reference":"Patient/0accf4d2-156a-425c-8400-33c073a0f661"},"type":[{"coding":[{"code":"50849002","display":"Emergency room admission (procedure)","system":"http://snomed.info/sct"}],"text":"Emergency room admission (procedure)"}]}},{"resource":{"class":{"code":"WELLNESS"},"id":"dd36d000-5a14-4c69-87d3-04b087ba099e","meta":{"lastUpdated":"2019-04-09T12:03:32.374211+00:00","versionId":"MTU1NDgxMTQxMjM3NDIxMTAwMA"},"participant":[{"individual":{"reference":"Practitioner/26c419ce-a137-417b-90ef-8da89cacc8e3"}}],"period":{"end":"2014-08-20T08:12:23-04:00","start":"2014-08-20T07:57:23-04:00"},"resourceType":"Encounter","serviceProvider":{"reference":"Organization/3c1a6594-2deb-4ff5-972a-a209361ec3eb"},"status":"finished","subject":{"reference":"Patient/0accf4d2-156a-425c-8400-33c073a0f661"},"type":[{"coding":[{"code":"185349003","display":"Encounter for check up (procedure)","system":"http://snomed.info/sct"}],"text":"Encounter for check up (procedure)"}]}},{"resource":{"class":{"code":"URGENTCARE"},"id":"e382b59e-0128-468b-be66-3d25673150d5","meta":{"lastUpdated":"2019-04-09T12:03:36.477272+00:00","versionId":"MTU1NDgxMTQxNjQ3NzI3MjAwMA"},"participant":[{"individual":{"reference":"Practitioner/4e75658e-2496-4900-a2a4-e8aa600269ed"}}],"period":{"end":"2017-08-09T08:12:23-04:00","start":"2017-08-09T07:57:23-04:00"},"resourceType":"Encounter","serviceProvider":{"reference":"Organization/057e5b30-6566-4cff-80cc-1e899ab80bae"},"status":"finished","subject":{"reference":"Patient/0accf4d2-156a-425c-8400-33c073a0f661"},"type":[{"coding":[{"code":"371883000","display":"Outpatient procedure (procedure)","system":"http://snomed.info/sct"}],"text":"Outpatient procedure (procedure)"}]}},{"resource":{"class":{"code":"WELLNESS"},"id":"e5110187-2347-412c-ac6d-75283ba352d1","meta":{"lastUpdated":"2019-04-09T12:03:34.434299+00:00","versionId":"MTU1NDgxMTQxNDQzNDI5OTAwMA"},"participant":[{"individual":{"reference":"Practitioner/26c419ce-a137-417b-90ef-8da89cacc8e3"}}],"period":{"end":"2016-05-18T08:27:23-04:00","start":"2016-05-18T07:57:23-04:00"},"resourceType":"Encounter","serviceProvider":{"reference":"Organization/3c1a6594-2deb-4ff5-972a-a209361ec3eb"},"status":"finished","subject":{"reference":"Patient/0accf4d2-156a-425c-8400-33c073a0f661"},"type":[{"coding":[{"code":"185349003","display":"Encounter for check up (procedure)","system":"http://snomed.info/sct"}],"text":"Encounter for check up (procedure)"}]}},{"resource":{"class":{"code":"WELLNESS"},"id":"e5427038-0294-4a63-9f2d-11f4ad47ced6","meta":{"lastUpdated":"2019-04-09T12:03:36.497952+00:00","versionId":"MTU1NDgxMTQxNjQ5Nzk1MjAwMA"},"participant":[{"individual":{"reference":"Practitioner/26c419ce-a137-417b-90ef-8da89cacc8e3"}}],"period":{"end":"2018-01-31T07:12:23-05:00","start":"2018-01-31T06:57:23-05:00"},"resourceType":"Encounter","serviceProvider":{"reference":"Organization/3c1a6594-2deb-4ff5-972a-a209361ec3eb"},"status":"finished","subject":{"reference":"Patient/0accf4d2-156a-425c-8400-33c073a0f661"},"type":[{"coding":[{"code":"185349003","display":"Encounter for check up (procedure)","system":"http://snomed.info/sct"}],"text":"Encounter for check up (procedure)"}]}},{"resource":{"class":{"code":"WELLNESS"},"id":"e552d549-c916-493a-b70f-986636288805","meta":{"lastUpdated":"2019-04-09T12:03:33.397274+00:00","versionId":"MTU1NDgxMTQxMzM5NzI3NDAwMA"},"participant":[{"individual":{"reference":"Practitioner/26c419ce-a137-417b-90ef-8da89cacc8e3"}}],"period":{"end":"2015-05-27T08:12:23-04:00","start":"2015-05-27T07:57:23-04:00"},"resourceType":"Encounter","serviceProvider":{"reference":"Organization/3c1a6594-2deb-4ff5-972a-a209361ec3eb"},"status":"finished","subject":{"reference":"Patient/0accf4d2-156a-425c-8400-33c073a0f661"},"type":[{"coding":[{"code":"185349003","display":"Encounter for check up (procedure)","system":"http://snomed.info/sct"}],"text":"Encounter for check up (procedure)"}]}},{"resource":{"class":{"code":"URGENTCARE"},"id":"e631b8b9-8793-45c8-9be9-c466a444d727","meta":{"lastUpdated":"2019-04-09T12:03:35.481901+00:00","versionId":"MTU1NDgxMTQxNTQ4MTkwMTAwMA"},"participant":[{"individual":{"reference":"Practitioner/4e75658e-2496-4900-a2a4-e8aa600269ed"}}],"period":{"end":"2017-05-10T08:12:23-04:00","start":"2017-05-10T07:57:23-04:00"},"resourceType":"Encounter","serviceProvider":{"reference":"Organization/057e5b30-6566-4cff-80cc-1e899ab80bae"},"status":"finished","subject":{"reference":"Patient/0accf4d2-156a-425c-8400-33c073a0f661"},"type":[{"coding":[{"code":"371883000","display":"Outpatient procedure (procedure)","system":"http://snomed.info/sct"}],"text":"Outpatient procedure (procedure)"}]}},{"resource":{"class":{"code":"URGENTCARE"},"id":"e7f47e1e-b826-460c-bb1c-bd55f4635d59","meta":{"lastUpdated":"2019-04-09T12:03:33.397252+00:00","versionId":"MTU1NDgxMTQxMzM5NzI1MjAwMA"},"participant":[{"individual":{"reference":"Practitioner/4e75658e-2496-4900-a2a4-e8aa600269ed"}}],"period":{"end":"2015-07-15T08:12:23-04:00","start":"2015-07-15T07:57:23-04:00"},"resourceType":"Encounter","serviceProvider":{"reference":"Organization/057e5b30-6566-4cff-80cc-1e899ab80bae"},"status":"finished","subject":{"reference":"Patient/0accf4d2-156a-425c-8400-33c073a0f661"},"type":[{"coding":[{"code":"371883000","display":"Outpatient procedure (procedure)","system":"http://snomed.info/sct"}],"text":"Outpatient procedure (procedure)"}]}},{"resource":{"class":{"code":"URGENTCARE"},"id":"e83cbaff-a357-4055-9e3f-019b8e5b4a93","meta":{"lastUpdated":"2019-04-09T12:03:31.357023+00:00","versionId":"MTU1NDgxMTQxMTM1NzAyMzAwMA"},"participant":[{"individual":{"reference":"Practitioner/4e75658e-2496-4900-a2a4-e8aa600269ed"}}],"period":{"end":"2014-02-26T07:12:23-05:00","start":"2014-02-26T06:57:23-05:00"},"resourceType":"Encounter","serviceProvider":{"reference":"Organization/057e5b30-6566-4cff-80cc-1e899ab80bae"},"status":"finished","subject":{"reference":"Patient/0accf4d2-156a-425c-8400-33c073a0f661"},"type":[{"coding":[{"code":"371883000","display":"Outpatient procedure (procedure)","system":"http://snomed.info/sct"}],"text":"Outpatient procedure (procedure)"}]}},{"resource":{"class":{"code":"WELLNESS"},"id":"eb888af5-5220-4ff4-80eb-2b43cac5ee72","meta":{"lastUpdated":"2019-04-09T12:03:26.165207+00:00","versionId":"MTU1NDgxMTQwNjE2NTIwNzAwMA"},"participant":[{"individual":{"reference":"Practitioner/26c419ce-a137-417b-90ef-8da89cacc8e3"}}],"period":{"end":"2009-07-29T08:27:23-04:00","start":"2009-07-29T07:57:23-04:00"},"resourceType":"Encounter","serviceProvider":{"reference":"Organization/3c1a6594-2deb-4ff5-972a-a209361ec3eb"},"status":"finished","subject":{"reference":"Patient/0accf4d2-156a-425c-8400-33c073a0f661"},"type":[{"coding":[{"code":"185349003","display":"Encounter for check up (procedure)","system":"http://snomed.info/sct"}],"text":"Encounter for check up (procedure)"}]}},{"resource":{"class":{"code":"WELLNESS"},"id":"ee3aa1cf-23bd-4b5d-97c1-4072b885a338","meta":{"lastUpdated":"2019-04-09T12:03:28.278593+00:00","versionId":"MTU1NDgxMTQwODI3ODU5MzAwMA"},"participant":[{"individual":{"reference":"Practitioner/26c419ce-a137-417b-90ef-8da89cacc8e3"}}],"period":{"end":"2011-12-07T07:12:23-05:00","start":"2011-12-07T06:57:23-05:00"},"resourceType":"Encounter","serviceProvider":{"reference":"Organization/3c1a6594-2deb-4ff5-972a-a209361ec3eb"},"status":"finished","subject":{"reference":"Patient/0accf4d2-156a-425c-8400-33c073a0f661"},"type":[{"coding":[{"code":"185349003","display":"Encounter for check up (procedure)","system":"http://snomed.info/sct"}],"text":"Encounter for check up (procedure)"}]}},{"resource":{"class":{"code":"WELLNESS"},"id":"eeee67b1-97ba-43db-8e17-7692c550f416","meta":{"lastUpdated":"2019-04-09T12:03:28.303591+00:00","versionId":"MTU1NDgxMTQwODMwMzU5MTAwMA"},"participant":[{"individual":{"reference":"Practitioner/26c419ce-a137-417b-90ef-8da89cacc8e3"}}],"period":{"end":"2012-04-04T08:12:23-04:00","start":"2012-04-04T07:57:23-04:00"},"resourceType":"Encounter","serviceProvider":{"reference":"Organization/3c1a6594-2deb-4ff5-972a-a209361ec3eb"},"status":"finished","subject":{"reference":"Patient/0accf4d2-156a-425c-8400-33c073a0f661"},"type":[{"coding":[{"code":"185349003","display":"Encounter for check up (procedure)","system":"http://snomed.info/sct"}],"text":"Encounter for check up (procedure)"}]}},{"resource":{"class":{"code":"URGENTCARE"},"id":"f191230e-7384-4f1b-ba01-d83def128e31","meta":{"lastUpdated":"2019-04-09T12:03:36.506148+00:00","versionId":"MTU1NDgxMTQxNjUwNjE0ODAwMA"},"participant":[{"individual":{"reference":"Practitioner/4e75658e-2496-4900-a2a4-e8aa600269ed"}}],"period":{"end":"2018-05-02T08:12:23-04:00","start":"2018-05-02T07:57:23-04:00"},"resourceType":"Encounter","serviceProvider":{"reference":"Organization/057e5b30-6566-4cff-80cc-1e899ab80bae"},"status":"finished","subject":{"reference":"Patient/0accf4d2-156a-425c-8400-33c073a0f661"},"type":[{"coding":[{"code":"371883000","display":"Outpatient procedure (procedure)","system":"http://snomed.info/sct"}],"text":"Outpatient procedure (procedure)"}]}},{"resource":{"class":{"code":"URGENTCARE"},"id":"f1f9b727-e851-4541-bb6b-95b6f5049e40","meta":{"lastUpdated":"2019-04-09T12:03:27.227892+00:00","versionId":"MTU1NDgxMTQwNzIyNzg5MjAwMA"},"participant":[{"individual":{"reference":"Practitioner/4e75658e-2496-4900-a2a4-e8aa600269ed"}}],"period":{"end":"2010-06-23T08:12:23-04:00","start":"2010-06-23T07:57:23-04:00"},"resourceType":"Encounter","serviceProvider":{"reference":"Organization/057e5b30-6566-4cff-80cc-1e899ab80bae"},"status":"finished","subject":{"reference":"Patient/0accf4d2-156a-425c-8400-33c073a0f661"},"type":[{"coding":[{"code":"371883000","display":"Outpatient procedure (procedure)","system":"http://snomed.info/sct"}],"text":"Outpatient procedure (procedure)"}]}},{"resource":{"class":{"code":"URGENTCARE"},"id":"f36f02ef-f8e7-44f0-972c-b33f50c8a5fa","meta":{"lastUpdated":"2019-04-09T12:03:27.215610+00:00","versionId":"MTU1NDgxMTQwNzIxNTYxMDAwMA"},"participant":[{"individual":{"reference":"Practitioner/4e75658e-2496-4900-a2a4-e8aa600269ed"}}],"period":{"end":"2010-01-13T07:12:23-05:00","start":"2010-01-13T06:57:23-05:00"},"resourceType":"Encounter","serviceProvider":{"reference":"Organization/057e5b30-6566-4cff-80cc-1e899ab80bae"},"status":"finished","subject":{"reference":"Patient/0accf4d2-156a-425c-8400-33c073a0f661"},"type":[{"coding":[{"code":"371883000","display":"Outpatient procedure (procedure)","system":"http://snomed.info/sct"}],"text":"Outpatient procedure (procedure)"}]}},{"resource":{"class":{"code":"URGENTCARE"},"id":"f53f354b-5475-4711-bba1-9b1bbb36b430","meta":{"lastUpdated":"2019-04-09T12:03:27.218052+00:00","versionId":"MTU1NDgxMTQwNzIxODA1MjAwMA"},"participant":[{"individual":{"reference":"Practitioner/4e75658e-2496-4900-a2a4-e8aa600269ed"}}],"period":{"end":"2010-10-13T08:12:23-04:00","start":"2010-10-13T07:57:23-04:00"},"resourceType":"Encounter","serviceProvider":{"reference":"Organization/057e5b30-6566-4cff-80cc-1e899ab80bae"},"status":"finished","subject":{"reference":"Patient/0accf4d2-156a-425c-8400-33c073a0f661"},"type":[{"coding":[{"code":"371883000","display":"Outpatient procedure (procedure)","system":"http://snomed.info/sct"}],"text":"Outpatient procedure (procedure)"}]}},{"resource":{"class":{"code":"WELLNESS"},"id":"f7302771-7858-4a66-bbdd-a20a7e01e774","meta":{"lastUpdated":"2019-04-09T12:03:27.216514+00:00","versionId":"MTU1NDgxMTQwNzIxNjUxNDAwMA"},"participant":[{"individual":{"reference":"Practitioner/26c419ce-a137-417b-90ef-8da89cacc8e3"}}],"period":{"end":"2010-03-24T08:12:23-04:00","start":"2010-03-24T07:57:23-04:00"},"resourceType":"Encounter","serviceProvider":{"reference":"Organization/3c1a6594-2deb-4ff5-972a-a209361ec3eb"},"status":"finished","subject":{"reference":"Patient/0accf4d2-156a-425c-8400-33c073a0f661"},"type":[{"coding":[{"code":"185349003","display":"Encounter for check up (procedure)","system":"http://snomed.info/sct"}],"text":"Encounter for check up (procedure)"}]}},{"resource":{"class":{"code":"WELLNESS"},"id":"f80399f7-5182-45f8-9634-5c8186898bdf","meta":{"lastUpdated":"2019-04-09T12:03:27.250195+00:00","versionId":"MTU1NDgxMTQwNzI1MDE5NTAwMA"},"participant":[{"individual":{"reference":"Practitioner/26c419ce-a137-417b-90ef-8da89cacc8e3"}}],"period":{"end":"2011-02-09T07:27:23-05:00","start":"2011-02-09T06:57:23-05:00"},"resourceType":"Encounter","serviceProvider":{"reference":"Organization/3c1a6594-2deb-4ff5-972a-a209361ec3eb"},"status":"finished","subject":{"reference":"Patient/0accf4d2-156a-425c-8400-33c073a0f661"},"type":[{"coding":[{"code":"185349003","display":"Encounter for check up (procedure)","system":"http://snomed.info/sct"}],"text":"Encounter for check up (procedure)"}]}},{"resource":{"class":{"code":"URGENTCARE"},"id":"f83cf85c-5cf1-4dfc-b469-f73650dcb228","meta":{"lastUpdated":"2019-04-09T12:03:26.170859+00:00","versionId":"MTU1NDgxMTQwNjE3MDg1OTAwMA"},"participant":[{"individual":{"reference":"Practitioner/4e75658e-2496-4900-a2a4-e8aa600269ed"}}],"period":{"end":"2009-05-06T08:12:23-04:00","start":"2009-05-06T07:57:23-04:00"},"resourceType":"Encounter","serviceProvider":{"reference":"Organization/057e5b30-6566-4cff-80cc-1e899ab80bae"},"status":"finished","subject":{"reference":"Patient/0accf4d2-156a-425c-8400-33c073a0f661"},"type":[{"coding":[{"code":"371883000","display":"Outpatient procedure (procedure)","system":"http://snomed.info/sct"}],"text":"Outpatient procedure (procedure)"}]}},{"resource":{"class":{"code":"URGENTCARE"},"id":"f86841dd-d9be-4b93-a4dd-0886f482c74d","meta":{"lastUpdated":"2019-04-09T12:03:33.411634+00:00","versionId":"MTU1NDgxMTQxMzQxMTYzNDAwMA"},"participant":[{"individual":{"reference":"Practitioner/4e75658e-2496-4900-a2a4-e8aa600269ed"}}],"period":{"end":"2016-01-13T07:12:23-05:00","start":"2016-01-13T06:57:23-05:00"},"resourceType":"Encounter","serviceProvider":{"reference":"Organization/057e5b30-6566-4cff-80cc-1e899ab80bae"},"status":"finished","subject":{"reference":"Patient/0accf4d2-156a-425c-8400-33c073a0f661"},"type":[{"coding":[{"code":"371883000","display":"Outpatient procedure (procedure)","system":"http://snomed.info/sct"}],"text":"Outpatient procedure (procedure)"}]}},{"resource":{"class":{"code":"EMERGENCY"},"id":"f927e912-d3d8-4eea-915e-2ed3a6912fa5","meta":{"lastUpdated":"2019-04-09T12:03:34.434114+00:00","versionId":"MTU1NDgxMTQxNDQzNDExNDAwMA"},"participant":[{"individual":{"reference":"Practitioner/26c419ce-a137-417b-90ef-8da89cacc8e3"}}],"period":{"end":"2016-01-27T07:57:23-05:00","start":"2016-01-27T06:57:23-05:00"},"resourceType":"Encounter","serviceProvider":{"reference":"Organization/3c1a6594-2deb-4ff5-972a-a209361ec3eb"},"status":"finished","subject":{"reference":"Patient/0accf4d2-156a-425c-8400-33c073a0f661"},"type":[{"coding":[{"code":"50849002","display":"Emergency Encounter","system":"http://snomed.info/sct"}],"text":"Emergency Encounter"}]}},{"resource":{"class":{"code":"WELLNESS"},"id":"fcf220e3-479b-4929-a390-b1663e65a2b9","meta":{"lastUpdated":"2019-04-09T12:03:34.450460+00:00","versionId":"MTU1NDgxMTQxNDQ1MDQ2MDAwMA"},"participant":[{"individual":{"reference":"Practitioner/26c419ce-a137-417b-90ef-8da89cacc8e3"}}],"period":{"end":"2016-08-17T08:12:23-04:00","start":"2016-08-17T07:57:23-04:00"},"resourceType":"Encounter","serviceProvider":{"reference":"Organization/3c1a6594-2deb-4ff5-972a-a209361ec3eb"},"status":"finished","subject":{"reference":"Patient/0accf4d2-156a-425c-8400-33c073a0f661"},"type":[{"coding":[{"code":"185349003","display":"Encounter for check up (procedure)","system":"http://snomed.info/sct"}],"text":"Encounter for check up (procedure)"}]}},{"resource":{"class":{"code":"EMERGENCY"},"id":"fdd0df83-f6e4-486a-9fd4-9f693244f263","meta":{"lastUpdated":"2019-04-09T12:03:28.271644+00:00","versionId":"MTU1NDgxMTQwODI3MTY0NDAwMA"},"participant":[{"individual":{"reference":"Practitioner/26c419ce-a137-417b-90ef-8da89cacc8e3"}}],"period":{"end":"2011-07-13T08:57:23-04:00","start":"2011-07-13T07:57:23-04:00"},"resourceType":"Encounter","serviceProvider":{"reference":"Organization/3c1a6594-2deb-4ff5-972a-a209361ec3eb"},"status":"finished","subject":{"reference":"Patient/0accf4d2-156a-425c-8400-33c073a0f661"},"type":[{"coding":[{"code":"50849002","display":"Emergency Encounter","system":"http://snomed.info/sct"}],"text":"Emergency Encounter"}]}},{"resource":{"class":{"code":"WELLNESS"},"id":"ff80e9b9-c9d4-4d51-9a0a-f2757518e1b7","meta":{"lastUpdated":"2019-04-09T12:03:29.353355+00:00","versionId":"MTU1NDgxMTQwOTM1MzM1NTAwMA"},"participant":[{"individual":{"reference":"Practitioner/26c419ce-a137-417b-90ef-8da89cacc8e3"}}],"period":{"end":"2012-11-07T07:12:23-05:00","start":"2012-11-07T06:57:23-05:00"},"resourceType":"Encounter","serviceProvider":{"reference":"Organization/3c1a6594-2deb-4ff5-972a-a209361ec3eb"},"status":"finished","subject":{"reference":"Patient/0accf4d2-156a-425c-8400-33c073a0f661"},"type":[{"coding":[{"code":"185349003","display":"Encounter for check up (procedure)","system":"http://snomed.info/sct"}],"text":"Encounter for check up (procedure)"}]}},{"resource":{"billablePeriod":{"end":"2015-10-29T08:27:23-04:00","start":"2014-10-29T08:27:23-04:00"},"careTeam":[{"provider":{"identifier":{"system":"http://hl7.org/fhir/sid/us-npi","value":"99999999"}},"role":{"coding":[{"code":"primary","display":"Primary Care Practitioner","system":"http://hl7.org/fhir/claimcareteamrole"}]},"sequence":1}],"claim":{"reference":"Claim/b7fbd008-67d0-4d02-9e0b-c3d9ecb36691"},"contained":[{"id":"1","intent":"order","recipient":[{"identifier":{"system":"http://hl7.org/fhir/sid/us-npi","value":"99999999"}}],"requester":{"agent":{"identifier":{"system":"http://hl7.org/fhir/sid/us-npi","value":"99999999"}}},"resourceType":"ReferralRequest","status":"completed","subject":{"reference":"Patient/0accf4d2-156a-425c-8400-33c073a0f661"}},{"id":"coverage","resourceType":"Coverage","type":{"text":"private"}}],"created":"2014-10-29T08:27:23-04:00","id":"015049a5-dc93-4569-b8dd-12e36288d75f","identifier":[{"system":"https://bluebutton.cms.gov/resources/variables/clm_id","value":"b7fbd008-67d0-4d02-9e0b-c3d9ecb36691"},{"system":"https://bluebutton.cms.gov/resources/identifier/claim-group","value":"99999999999"}],"insurance":{"coverage":{"reference":"#coverage"}},"item":[{"category":{"coding":[{"code":"1","display":"Medical care","system":"https://bluebutton.cms.gov/resources/variables/line_cms_type_srvc_cd"}]},"encounter":[{"reference":"Encounter/13b2fe86-debb-487d-ae69-c2b020f80f2c"}],"locationCodeableConcept":{"coding":[{"code":"21","display":"Inpatient Hospital","system":"https://bluebutton.cms.gov/resources/variables/line_place_of_srvc_cd"}]},"sequence":1,"servicedPeriod":{"end":"2014-10-29T08:27:23-04:00","start":"2014-10-29T07:57:23-04:00"}},{"adjudication":[{"amount":{"code":"USD","system":"urn:iso:std:iso:4217","value":88.56400000000001},"category":{"coding":[{"code":"https://bluebutton.cms.gov/resources/variables/line_coinsrnc_amt","display":"Line Beneficiary Coinsurance Amount","system":"https://bluebutton.cms.gov/resources/codesystem/adjudication"}]}},{"amount":{"code":"USD","system":"urn:iso:std:iso:4217","value":354.25600000000003},"category":{"coding":[{"code":"https://bluebutton.cms.gov/resources/variables/line_prvdr_pmt_amt","display":"Line Provider Payment Amount","system":"https://bluebutton.cms.gov/resources/codesystem/adjudication"}]}},{"amount":{"code":"USD","system":"urn:iso:std:iso:4217","value":442.82},"category":{"coding":[{"code":"https://bluebutton.cms.gov/resources/variables/line_sbmtd_chrg_amt","display":"Line Submitted Charge Amount","system":"https://bluebutton.cms.gov/resources/codesystem/adjudication"}]}},{"amount":{"code":"USD","system":"urn:iso:std:iso:4217","value":442.82},"category":{"coding":[{"code":"https://bluebutton.cms.gov/resources/variables/line_alowd_chrg_amt","display":"Line Allowed Charge Amount","system":"https://bluebutton.cms.gov/resources/codesystem/adjudication"}]}},{"amount":{"code":"USD","system":"urn:iso:std:iso:4217","value":0},"category":{"coding":[{"code":"https://bluebutton.cms.gov/resources/variables/line_bene_ptb_ddctbl_amt","display":"Line Beneficiary Part B Deductible Amount","system":"https://bluebutton.cms.gov/resources/codesystem/adjudication"}]}},{"category":{"coding":[{"code":"https://bluebutton.cms.gov/resources/variables/line_prcsg_ind_cd","display":"Line Processing Indicator Code","system":"https://bluebutton.cms.gov/resources/codesystem/adjudication"}]},"reason":{"coding":[{"code":"A","display":"Allowed","system":"https://bluebutton.cms.gov/resources/variables/line_prcsg_ind_cd"}]}}],"category":{"coding":[{"code":"1","display":"Medical care","system":"https://bluebutton.cms.gov/resources/variables/line_cms_type_srvc_cd"}]},"locationCodeableConcept":{"coding":[{"code":"21","display":"Inpatient Hospital","system":"https://bluebutton.cms.gov/resources/variables/line_place_of_srvc_cd"}]},"net":{"code":"USD","system":"urn:iso:std:iso:4217","value":442.82},"sequence":2,"service":{"coding":[{"code":"428191000124101","system":"http://snomed.info/sct","version":"v1"}]},"servicedPeriod":{"end":"2014-10-29T08:27:23-04:00","start":"2014-10-29T07:57:23-04:00"}}],"meta":{"lastUpdated":"2019-04-09T12:03:32.374737+00:00","versionId":"MTU1NDgxMTQxMjM3NDczNzAwMA"},"organization":{"identifier":{"value":"3c1a6594-2deb-4ff5-972a-a209361ec3eb"}},"patient":{"reference":"Patient/0accf4d2-156a-425c-8400-33c073a0f661"},"payment":{"amount":{"code":"USD","system":"urn:iso:std:iso:4217","value":354.25600000000003}},"provider":{"identifier":{"value":"26c419ce-a137-417b-90ef-8da89cacc8e3"}},"referral":{"reference":"#1"},"resourceType":"ExplanationOfBenefit","status":"active","totalCost":{"code":"USD","system":"urn:iso:std:iso:4217","value":567.82},"type":{"coding":[{"code":"71","display":"Local carrier non-durable medical equipment, prosthetics, orthotics, and supplies (DMEPOS) claim","system":"https://bluebutton.cms.gov/resources/variables/nch_clm_type_cd"},{"code":"CARRIER","display":"EOB Type","system":"https://bluebutton.cms.gov/resources/codesystem/eob-type"},{"code":"professional","display":"Claim Type","system":"http://hl7.org/fhir/ex-claimtype"},{"code":"O","display":"Part B physician/supplier claim record (processed by local carriers; can include DMEPOS services)","system":"https://bluebutton.cms.gov/resources/variables/nch_near_line_rec_ident_cd"}]}}},{"resource":{"billablePeriod":{"end":"2017-06-15T08:12:23-04:00","start":"2016-06-15T08:12:23-04:00"},"careTeam":[{"provider":{"identifier":{"system":"http://hl7.org/fhir/sid/us-npi","value":"99999999"}},"role":{"coding":[{"code":"primary","display":"Primary Care Practitioner","system":"http://hl7.org/fhir/claimcareteamrole"}]},"sequence":1}],"claim":{"reference":"Claim/872e5937-ee5a-499a-b713-274a328a958b"},"contained":[{"id":"1","intent":"order","recipient":[{"identifier":{"system":"http://hl7.org/fhir/sid/us-npi","value":"99999999"}}],"requester":{"agent":{"identifier":{"system":"http://hl7.org/fhir/sid/us-npi","value":"99999999"}}},"resourceType":"ReferralRequest","status":"completed","subject":{"reference":"Patient/0accf4d2-156a-425c-8400-33c073a0f661"}},{"id":"coverage","resourceType":"Coverage","type":{"text":"private"}}],"created":"2016-06-15T08:12:23-04:00","id":"01e2ae2f-c42e-4a9d-a1ef-3c47280b72fb","identifier":[{"system":"https://bluebutton.cms.gov/resources/variables/clm_id","value":"872e5937-ee5a-499a-b713-274a328a958b"},{"system":"https://bluebutton.cms.gov/resources/identifier/claim-group","value":"99999999999"}],"insurance":{"coverage":{"reference":"#coverage"}},"item":[{"category":{"coding":[{"code":"1","display":"Medical care","system":"https://bluebutton.cms.gov/resources/variables/line_cms_type_srvc_cd"}]},"encounter":[{"reference":"Encounter/8e01fdb7-6a37-4214-b94a-2e3930f287a4"}],"locationCodeableConcept":{"coding":[{"code":"21","display":"Inpatient Hospital","system":"https://bluebutton.cms.gov/resources/variables/line_place_of_srvc_cd"}]},"sequence":1,"servicedPeriod":{"end":"2016-06-15T08:12:23-04:00","start":"2016-06-15T07:57:23-04:00"}}],"meta":{"lastUpdated":"2019-04-09T12:03:34.436577+00:00","versionId":"MTU1NDgxMTQxNDQzNjU3NzAwMA"},"organization":{"identifier":{"value":"3c1a6594-2deb-4ff5-972a-a209361ec3eb"}},"patient":{"reference":"Patient/0accf4d2-156a-425c-8400-33c073a0f661"},"payment":{"amount":{"code":"USD","system":"urn:iso:std:iso:4217","value":0}},"provider":{"identifier":{"value":"26c419ce-a137-417b-90ef-8da89cacc8e3"}},"referral":{"reference":"#1"},"resourceType":"ExplanationOfBenefit","status":"active","totalCost":{"code":"USD","system":"urn:iso:std:iso:4217","value":125},"type":{"coding":[{"code":"71","display":"Local carrier non-durable medical equipment, prosthetics, orthotics, and supplies (DMEPOS) claim","system":"https://bluebutton.cms.gov/resources/variables/nch_clm_type_cd"},{"code":"CARRIER","display":"EOB Type","system":"https://bluebutton.cms.gov/resources/codesystem/eob-type"},{"code":"professional","display":"Claim Type","system":"http://hl7.org/fhir/ex-claimtype"},{"code":"O","display":"Part B physician/supplier claim record (processed by local carriers; can include DMEPOS services)","system":"https://bluebutton.cms.gov/resources/variables/nch_near_line_rec_ident_cd"}]}}},{"resource":{"billablePeriod":{"end":"2012-06-29T08:12:23-04:00","start":"2011-06-29T08:12:23-04:00"},"careTeam":[{"provider":{"identifier":{"system":"http://hl7.org/fhir/sid/us-npi","value":"99999999"}},"role":{"coding":[{"code":"primary","display":"Primary Care Practitioner","system":"http://hl7.org/fhir/claimcareteamrole"}]},"sequence":1}],"claim":{"reference":"Claim/ccfdfc12-721c-4cab-acaa-f57ad3a6b944"},"contained":[{"id":"1","intent":"order","recipient":[{"identifier":{"system":"http://hl7.org/fhir/sid/us-npi","value":"99999999"}}],"requester":{"agent":{"identifier":{"system":"http://hl7.org/fhir/sid/us-npi","value":"99999999"}}},"resourceType":"ReferralRequest","status":"completed","subject":{"reference":"Patient/0accf4d2-156a-425c-8400-33c073a0f661"}},{"id":"coverage","resourceType":"Coverage","type":{"text":"private"}}],"created":"2011-06-29T08:12:23-04:00","id":"03b671cc-c193-4943-b933-d7a4c185315c","identifier":[{"system":"https://bluebutton.cms.gov/resources/variables/clm_id","value":"ccfdfc12-721c-4cab-acaa-f57ad3a6b944"},{"system":"https://bluebutton.cms.gov/resources/identifier/claim-group","value":"99999999999"}],"insurance":{"coverage":{"reference":"#coverage"}},"item":[{"category":{"coding":[{"code":"1","display":"Medical care","system":"https://bluebutton.cms.gov/resources/variables/line_cms_type_srvc_cd"}]},"encounter":[{"reference":"Encounter/a2a6f368-2d32-49d6-a4a1-600191a86bae"}],"locationCodeableConcept":{"coding":[{"code":"21","display":"Inpatient Hospital","system":"https://bluebutton.cms.gov/resources/variables/line_place_of_srvc_cd"}]},"sequence":1,"servicedPeriod":{"end":"2011-06-29T08:12:23-04:00","start":"2011-06-29T07:57:23-04:00"}}],"meta":{"lastUpdated":"2019-04-09T12:03:28.266540+00:00","versionId":"MTU1NDgxMTQwODI2NjU0MDAwMA"},"organization":{"identifier":{"value":"057e5b30-6566-4cff-80cc-1e899ab80bae"}},"patient":{"reference":"Patient/0accf4d2-156a-425c-8400-33c073a0f661"},"payment":{"amount":{"code":"USD","system":"urn:iso:std:iso:4217","value":0}},"provider":{"identifier":{"value":"4e75658e-2496-4900-a2a4-e8aa600269ed"}},"referral":{"reference":"#1"},"resourceType":"ExplanationOfBenefit","status":"active","totalCost":{"code":"USD","system":"urn:iso:std:iso:4217","value":125},"type":{"coding":[{"code":"71","display":"Local carrier non-durable medical equipment, prosthetics, orthotics, and supplies (DMEPOS) claim","system":"https://bluebutton.cms.gov/resources/variables/nch_clm_type_cd"},{"code":"CARRIER","display":"EOB Type","system":"https://bluebutton.cms.gov/resources/codesystem/eob-type"},{"code":"professional","display":"Claim Type","system":"http://hl7.org/fhir/ex-claimtype"},{"code":"O","display":"Part B physician/supplier claim record (processed by local carriers; can include DMEPOS services)","system":"https://bluebutton.cms.gov/resources/variables/nch_near_line_rec_ident_cd"}]}}},{"resource":{"billablePeriod":{"end":"2018-05-10T08:12:23-04:00","start":"2017-05-10T08:12:23-04:00"},"careTeam":[{"provider":{"identifier":{"system":"http://hl7.org/fhir/sid/us-npi","value":"99999999"}},"role":{"coding":[{"code":"primary","display":"Primary Care Practitioner","system":"http://hl7.org/fhir/claimcareteamrole"}]},"sequence":1}],"claim":{"reference":"Claim/daffd3c3-502c-488c-9deb-24737e7b0b26"},"contained":[{"id":"1","intent":"order","recipient":[{"identifier":{"system":"http://hl7.org/fhir/sid/us-npi","value":"99999999"}}],"requester":{"agent":{"identifier":{"system":"http://hl7.org/fhir/sid/us-npi","value":"99999999"}}},"resourceType":"ReferralRequest","status":"completed","subject":{"reference":"Patient/0accf4d2-156a-425c-8400-33c073a0f661"}},{"id":"coverage","resourceType":"Coverage","type":{"text":"private"}}],"created":"2017-05-10T08:12:23-04:00","id":"0407bcd8-cbd4-4368-870b-dcfdbb1c3238","identifier":[{"system":"https://bluebutton.cms.gov/resources/variables/clm_id","value":"daffd3c3-502c-488c-9deb-24737e7b0b26"},{"system":"https://bluebutton.cms.gov/resources/identifier/claim-group","value":"99999999999"}],"insurance":{"coverage":{"reference":"#coverage"}},"item":[{"category":{"coding":[{"code":"1","display":"Medical care","system":"https://bluebutton.cms.gov/resources/variables/line_cms_type_srvc_cd"}]},"encounter":[{"reference":"Encounter/e631b8b9-8793-45c8-9be9-c466a444d727"}],"locationCodeableConcept":{"coding":[{"code":"21","display":"Inpatient Hospital","system":"https://bluebutton.cms.gov/resources/variables/line_place_of_srvc_cd"}]},"sequence":1,"servicedPeriod":{"end":"2017-05-10T08:12:23-04:00","start":"2017-05-10T07:57:23-04:00"}}],"meta":{"lastUpdated":"2019-04-09T12:03:35.485916+00:00","versionId":"MTU1NDgxMTQxNTQ4NTkxNjAwMA"},"organization":{"identifier":{"value":"057e5b30-6566-4cff-80cc-1e899ab80bae"}},"patient":{"reference":"Patient/0accf4d2-156a-425c-8400-33c073a0f661"},"payment":{"amount":{"code":"USD","system":"urn:iso:std:iso:4217","value":0}},"provider":{"identifier":{"value":"4e75658e-2496-4900-a2a4-e8aa600269ed"}},"referral":{"reference":"#1"},"resourceType":"ExplanationOfBenefit","status":"active","totalCost":{"code":"USD","system":"urn:iso:std:iso:4217","value":125},"type":{"coding":[{"code":"71","display":"Local carrier non-durable medical equipment, prosthetics, orthotics, and supplies (DMEPOS) claim","system":"https://bluebutton.cms.gov/resources/variables/nch_clm_type_cd"},{"code":"CARRIER","display":"EOB Type","system":"https://bluebutton.cms.gov/resources/codesystem/eob-type"},{"code":"professional","display":"Claim Type","system":"http://hl7.org/fhir/ex-claimtype"},{"code":"O","display":"Part B physician/supplier claim record (processed by local carriers; can include DMEPOS services)","system":"https://bluebutton.cms.gov/resources/variables/nch_near_line_rec_ident_cd"}]}}},{"resource":{"billablePeriod":{"end":"2019-05-02T08:12:23-04:00","start":"2018-05-02T08:12:23-04:00"},"careTeam":[{"provider":{"identifier":{"system":"http://hl7.org/fhir/sid/us-npi","value":"99999999"}},"role":{"coding":[{"code":"primary","display":"Primary Care Practitioner","system":"http://hl7.org/fhir/claimcareteamrole"}]},"sequence":1}],"claim":{"reference":"Claim/b4f628b2-d2e2-43ac-aa59-004e78992142"},"contained":[{"id":"1","intent":"order","recipient":[{"identifier":{"system":"http://hl7.org/fhir/sid/us-npi","value":"99999999"}}],"requester":{"agent":{"identifier":{"system":"http://hl7.org/fhir/sid/us-npi","value":"99999999"}}},"resourceType":"ReferralRequest","status":"completed","subject":{"reference":"Patient/0accf4d2-156a-425c-8400-33c073a0f661"}},{"id":"coverage","resourceType":"Coverage","type":{"text":"private"}}],"created":"2018-05-02T08:12:23-04:00","id":"04d36db0-2c79-44f4-8ad8-4962f2ba6d69","identifier":[{"system":"https://bluebutton.cms.gov/resources/variables/clm_id","value":"b4f628b2-d2e2-43ac-aa59-004e78992142"},{"system":"https://bluebutton.cms.gov/resources/identifier/claim-group","value":"99999999999"}],"insurance":{"coverage":{"reference":"#coverage"}},"item":[{"category":{"coding":[{"code":"1","display":"Medical care","system":"https://bluebutton.cms.gov/resources/variables/line_cms_type_srvc_cd"}]},"encounter":[{"reference":"Encounter/f191230e-7384-4f1b-ba01-d83def128e31"}],"locationCodeableConcept":{"coding":[{"code":"21","display":"Inpatient Hospital","system":"https://bluebutton.cms.gov/resources/variables/line_place_of_srvc_cd"}]},"sequence":1,"servicedPeriod":{"end":"2018-05-02T08:12:23-04:00","start":"2018-05-02T07:57:23-04:00"}}],"meta":{"lastUpdated":"2019-04-09T12:03:36.510756+00:00","versionId":"MTU1NDgxMTQxNjUxMDc1NjAwMA"},"organization":{"identifier":{"value":"057e5b30-6566-4cff-80cc-1e899ab80bae"}},"patient":{"reference":"Patient/0accf4d2-156a-425c-8400-33c073a0f661"},"payment":{"amount":{"code":"USD","system":"urn:iso:std:iso:4217","value":0}},"provider":{"identifier":{"value":"4e75658e-2496-4900-a2a4-e8aa600269ed"}},"referral":{"reference":"#1"},"resourceType":"ExplanationOfBenefit","status":"active","totalCost":{"code":"USD","system":"urn:iso:std:iso:4217","value":125},"type":{"coding":[{"code":"71","display":"Local carrier non-durable medical equipment, prosthetics, orthotics, and supplies (DMEPOS) claim","system":"https://bluebutton.cms.gov/resources/variables/nch_clm_type_cd"},{"code":"CARRIER","display":"EOB Type","system":"https://bluebutton.cms.gov/resources/codesystem/eob-type"},{"code":"professional","display":"Claim Type","system":"http://hl7.org/fhir/ex-claimtype"},{"code":"O","display":"Part B physician/supplier claim record (processed by local carriers; can include DMEPOS services)","system":"https://bluebutton.cms.gov/resources/variables/nch_near_line_rec_ident_cd"}]}}},{"resource":{"billablePeriod":{"end":"2016-03-25T08:12:23-04:00","start":"2015-03-25T08:12:23-04:00"},"careTeam":[{"provider":{"identifier":{"system":"http://hl7.org/fhir/sid/us-npi","value":"99999999"}},"role":{"coding":[{"code":"primary","display":"Primary Care Practitioner","system":"http://hl7.org/fhir/claimcareteamrole"}]},"sequence":1}],"claim":{"reference":"Claim/e05febe7-87f7-4935-a4fc-fb53c549e13d"},"contained":[{"id":"1","intent":"order","recipient":[{"identifier":{"system":"http://hl7.org/fhir/sid/us-npi","value":"99999999"}}],"requester":{"agent":{"identifier":{"system":"http://hl7.org/fhir/sid/us-npi","value":"99999999"}}},"resourceType":"ReferralRequest","status":"completed","subject":{"reference":"Patient/0accf4d2-156a-425c-8400-33c073a0f661"}},{"id":"coverage","resourceType":"Coverage","type":{"text":"private"}}],"created":"2015-03-25T08:12:23-04:00","id":"06091e83-f775-4b39-9332-cc0c2f34f2df","identifier":[{"system":"https://bluebutton.cms.gov/resources/variables/clm_id","value":"e05febe7-87f7-4935-a4fc-fb53c549e13d"},{"system":"https://bluebutton.cms.gov/resources/identifier/claim-group","value":"99999999999"}],"insurance":{"coverage":{"reference":"#coverage"}},"item":[{"category":{"coding":[{"code":"1","display":"Medical care","system":"https://bluebutton.cms.gov/resources/variables/line_cms_type_srvc_cd"}]},"encounter":[{"reference":"Encounter/63541d5b-671c-4628-9de8-0b77b3609e6d"}],"locationCodeableConcept":{"coding":[{"code":"21","display":"Inpatient Hospital","system":"https://bluebutton.cms.gov/resources/variables/line_place_of_srvc_cd"}]},"sequence":1,"servicedPeriod":{"end":"2015-03-25T08:12:23-04:00","start":"2015-03-25T07:57:23-04:00"}}],"meta":{"lastUpdated":"2019-04-09T12:03:33.404279+00:00","versionId":"MTU1NDgxMTQxMzQwNDI3OTAwMA"},"organization":{"identifier":{"value":"057e5b30-6566-4cff-80cc-1e899ab80bae"}},"patient":{"reference":"Patient/0accf4d2-156a-425c-8400-33c073a0f661"},"payment":{"amount":{"code":"USD","system":"urn:iso:std:iso:4217","value":0}},"provider":{"identifier":{"value":"4e75658e-2496-4900-a2a4-e8aa600269ed"}},"referral":{"reference":"#1"},"resourceType":"ExplanationOfBenefit","status":"active","totalCost":{"code":"USD","system":"urn:iso:std:iso:4217","value":125},"type":{"coding":[{"code":"71","display":"Local carrier non-durable medical equipment, prosthetics, orthotics, and supplies (DMEPOS) claim","system":"https://bluebutton.cms.gov/resources/variables/nch_clm_type_cd"},{"code":"CARRIER","display":"EOB Type","system":"https://bluebutton.cms.gov/resources/codesystem/eob-type"},{"code":"professional","display":"Claim Type","system":"http://hl7.org/fhir/ex-claimtype"},{"code":"O","display":"Part B physician/supplier claim record (processed by local carriers; can include DMEPOS services)","system":"https://bluebutton.cms.gov/resources/variables/nch_near_line_rec_ident_cd"}]}}},{"resource":{"billablePeriod":{"end":"2014-11-27T07:12:23-05:00","start":"2013-11-27T07:12:23-05:00"},"careTeam":[{"provider":{"identifier":{"system":"http://hl7.org/fhir/sid/us-npi","value":"99999999"}},"role":{"coding":[{"code":"primary","display":"Primary Care Practitioner","system":"http://hl7.org/fhir/claimcareteamrole"}]},"sequence":1}],"claim":{"reference":"Claim/6ceb6574-9185-4cf9-81e5-33efab6e926c"},"contained":[{"id":"1","intent":"order","recipient":[{"identifier":{"system":"http://hl7.org/fhir/sid/us-npi","value":"99999999"}}],"requester":{"agent":{"identifier":{"system":"http://hl7.org/fhir/sid/us-npi","value":"99999999"}}},"resourceType":"ReferralRequest","status":"completed","subject":{"reference":"Patient/0accf4d2-156a-425c-8400-33c073a0f661"}},{"id":"coverage","resourceType":"Coverage","type":{"text":"private"}}],"created":"2013-11-27T07:12:23-05:00","id":"0731da81-8f1d-40f0-9c39-57d578653a34","identifier":[{"system":"https://bluebutton.cms.gov/resources/variables/clm_id","value":"6ceb6574-9185-4cf9-81e5-33efab6e926c"},{"system":"https://bluebutton.cms.gov/resources/identifier/claim-group","value":"99999999999"}],"insurance":{"coverage":{"reference":"#coverage"}},"item":[{"category":{"coding":[{"code":"1","display":"Medical care","system":"https://bluebutton.cms.gov/resources/variables/line_cms_type_srvc_cd"}]},"encounter":[{"reference":"Encounter/209ee43c-741b-4c56-b7a1-3a2cd5184fa8"}],"locationCodeableConcept":{"coding":[{"code":"21","display":"Inpatient Hospital","system":"https://bluebutton.cms.gov/resources/variables/line_place_of_srvc_cd"}]},"sequence":1,"servicedPeriod":{"end":"2013-11-27T07:12:23-05:00","start":"2013-11-27T06:57:23-05:00"}},{"adjudication":[{"amount":{"code":"USD","system":"urn:iso:std:iso:4217","value":28.104000000000003},"category":{"coding":[{"code":"https://bluebutton.cms.gov/resources/variables/line_coinsrnc_amt","display":"Line Beneficiary Coinsurance Amount","system":"https://bluebutton.cms.gov/resources/codesystem/adjudication"}]}},{"amount":{"code":"USD","system":"urn:iso:std:iso:4217","value":112.41600000000001},"category":{"coding":[{"code":"https://bluebutton.cms.gov/resources/variables/line_prvdr_pmt_amt","display":"Line Provider Payment Amount","system":"https://bluebutton.cms.gov/resources/codesystem/adjudication"}]}},{"amount":{"code":"USD","system":"urn:iso:std:iso:4217","value":140.52},"category":{"coding":[{"code":"https://bluebutton.cms.gov/resources/variables/line_sbmtd_chrg_amt","display":"Line Submitted Charge Amount","system":"https://bluebutton.cms.gov/resources/codesystem/adjudication"}]}},{"amount":{"code":"USD","system":"urn:iso:std:iso:4217","value":140.52},"category":{"coding":[{"code":"https://bluebutton.cms.gov/resources/variables/line_alowd_chrg_amt","display":"Line Allowed Charge Amount","system":"https://bluebutton.cms.gov/resources/codesystem/adjudication"}]}},{"amount":{"code":"USD","system":"urn:iso:std:iso:4217","value":0},"category":{"coding":[{"code":"https://bluebutton.cms.gov/resources/variables/line_bene_ptb_ddctbl_amt","display":"Line Beneficiary Part B Deductible Amount","system":"https://bluebutton.cms.gov/resources/codesystem/adjudication"}]}},{"category":{"coding":[{"code":"https://bluebutton.cms.gov/resources/variables/line_prcsg_ind_cd","display":"Line Processing Indicator Code","system":"https://bluebutton.cms.gov/resources/codesystem/adjudication"}]},"reason":{"coding":[{"code":"A","display":"Allowed","system":"https://bluebutton.cms.gov/resources/variables/line_prcsg_ind_cd"}]}}],"category":{"coding":[{"code":"1","display":"Medical care","system":"https://bluebutton.cms.gov/resources/variables/line_cms_type_srvc_cd"}]},"informationLinkId":[1],"locationCodeableConcept":{"coding":[{"code":"21","display":"Inpatient Hospital","system":"https://bluebutton.cms.gov/resources/variables/line_place_of_srvc_cd"}]},"net":{"code":"USD","system":"urn:iso:std:iso:4217","value":140.52},"sequence":2,"servicedPeriod":{"end":"2013-11-27T07:12:23-05:00","start":"2013-11-27T06:57:23-05:00"}}],"meta":{"lastUpdated":"2019-04-09T12:03:31.357339+00:00","versionId":"MTU1NDgxMTQxMTM1NzMzOTAwMA"},"organization":{"identifier":{"value":"3c1a6594-2deb-4ff5-972a-a209361ec3eb"}},"patient":{"reference":"Patient/0accf4d2-156a-425c-8400-33c073a0f661"},"payment":{"amount":{"code":"USD","system":"urn:iso:std:iso:4217","value":112.41600000000001}},"provider":{"identifier":{"value":"26c419ce-a137-417b-90ef-8da89cacc8e3"}},"referral":{"reference":"#1"},"resourceType":"ExplanationOfBenefit","status":"active","totalCost":{"code":"USD","system":"urn:iso:std:iso:4217","value":265.52},"type":{"coding":[{"code":"71","display":"Local carrier non-durable medical equipment, prosthetics, orthotics, and supplies (DMEPOS) claim","system":"https://bluebutton.cms.gov/resources/variables/nch_clm_type_cd"},{"code":"CARRIER","display":"EOB Type","system":"https://bluebutton.cms.gov/resources/codesystem/eob-type"},{"code":"professional","display":"Claim Type","system":"http://hl7.org/fhir/ex-claimtype"},{"code":"O","display":"Part B physician/supplier claim record (processed by local carriers; can include DMEPOS services)","system":"https://bluebutton.cms.gov/resources/variables/nch_near_line_rec_ident_cd"}]}}},{"resource":{"billablePeriod":{"end":"2012-06-22T08:57:23-04:00","start":"2011-06-22T08:57:23-04:00"},"careTeam":[{"provider":{"identifier":{"system":"http://hl7.org/fhir/sid/us-npi","value":"99999999"}},"role":{"coding":[{"code":"primary","display":"Primary Care Practitioner","system":"http://hl7.org/fhir/claimcareteamrole"}]},"sequence":1}],"claim":{"reference":"Claim/4efbfaf5-b28a-4809-bf32-1a615a320c0e"},"contained":[{"id":"1","intent":"order","recipient":[{"identifier":{"system":"http://hl7.org/fhir/sid/us-npi","value":"99999999"}}],"requester":{"agent":{"identifier":{"system":"http://hl7.org/fhir/sid/us-npi","value":"99999999"}}},"resourceType":"ReferralRequest","status":"completed","subject":{"reference":"Patient/0accf4d2-156a-425c-8400-33c073a0f661"}},{"id":"coverage","resourceType":"Coverage","type":{"text":"private"}}],"created":"2011-06-22T08:57:23-04:00","id":"0767e935-126a-41b9-8c65-830ef30dd877","identifier":[{"system":"https://bluebutton.cms.gov/resources/variables/clm_id","value":"4efbfaf5-b28a-4809-bf32-1a615a320c0e"},{"system":"https://bluebutton.cms.gov/resources/identifier/claim-group","value":"99999999999"}],"insurance":{"coverage":{"reference":"#coverage"}},"item":[{"category":{"coding":[{"code":"1","display":"Medical care","system":"https://bluebutton.cms.gov/resources/variables/line_cms_type_srvc_cd"}]},"encounter":[{"reference":"Encounter/8154104b-952a-481b-bcf8-cb983badeed1"}],"locationCodeableConcept":{"coding":[{"code":"21","display":"Inpatient Hospital","system":"https://bluebutton.cms.gov/resources/variables/line_place_of_srvc_cd"}]},"sequence":1,"servicedPeriod":{"end":"2011-06-22T08:57:23-04:00","start":"2011-06-22T07:57:23-04:00"}}],"meta":{"lastUpdated":"2019-04-09T12:03:28.271849+00:00","versionId":"MTU1NDgxMTQwODI3MTg0OTAwMA"},"organization":{"identifier":{"value":"3c1a6594-2deb-4ff5-972a-a209361ec3eb"}},"patient":{"reference":"Patient/0accf4d2-156a-425c-8400-33c073a0f661"},"payment":{"amount":{"code":"USD","system":"urn:iso:std:iso:4217","value":0}},"provider":{"identifier":{"value":"26c419ce-a137-417b-90ef-8da89cacc8e3"}},"referral":{"reference":"#1"},"resourceType":"ExplanationOfBenefit","status":"active","totalCost":{"code":"USD","system":"urn:iso:std:iso:4217","value":125},"type":{"coding":[{"code":"71","display":"Local carrier non-durable medical equipment, prosthetics, orthotics, and supplies (DMEPOS) claim","system":"https://bluebutton.cms.gov/resources/variables/nch_clm_type_cd"},{"code":"CARRIER","display":"EOB Type","system":"https://bluebutton.cms.gov/resources/codesystem/eob-type"},{"code":"professional","display":"Claim Type","system":"http://hl7.org/fhir/ex-claimtype"},{"code":"O","display":"Part B physician/supplier claim record (processed by local carriers; can include DMEPOS services)","system":"https://bluebutton.cms.gov/resources/variables/nch_near_line_rec_ident_cd"}]}}},{"resource":{"billablePeriod":{"end":"2014-09-25T08:27:23-04:00","start":"2013-09-25T08:27:23-04:00"},"careTeam":[{"provider":{"identifier":{"system":"http://hl7.org/fhir/sid/us-npi","value":"99999999"}},"role":{"coding":[{"code":"primary","display":"Primary Care Practitioner","system":"http://hl7.org/fhir/claimcareteamrole"}]},"sequence":1}],"claim":{"reference":"Claim/2c146fb4-f923-46b1-bc8e-476577311702"},"contained":[{"id":"1","intent":"order","recipient":[{"identifier":{"system":"http://hl7.org/fhir/sid/us-npi","value":"99999999"}}],"requester":{"agent":{"identifier":{"system":"http://hl7.org/fhir/sid/us-npi","value":"99999999"}}},"resourceType":"ReferralRequest","status":"completed","subject":{"reference":"Patient/0accf4d2-156a-425c-8400-33c073a0f661"}},{"id":"coverage","resourceType":"Coverage","type":{"text":"private"}}],"created":"2013-09-25T08:27:23-04:00","id":"08c8e2ae-9bf2-43d6-a1b8-ed85b4c2c9b6","identifier":[{"system":"https://bluebutton.cms.gov/resources/variables/clm_id","value":"2c146fb4-f923-46b1-bc8e-476577311702"},{"system":"https://bluebutton.cms.gov/resources/identifier/claim-group","value":"99999999999"}],"insurance":{"coverage":{"reference":"#coverage"}},"item":[{"category":{"coding":[{"code":"1","display":"Medical care","system":"https://bluebutton.cms.gov/resources/variables/line_cms_type_srvc_cd"}]},"encounter":[{"reference":"Encounter/0558c0ab-d110-490b-8586-65ce3adf7dc6"}],"locationCodeableConcept":{"coding":[{"code":"21","display":"Inpatient Hospital","system":"https://bluebutton.cms.gov/resources/variables/line_place_of_srvc_cd"}]},"sequence":1,"servicedPeriod":{"end":"2013-09-25T08:27:23-04:00","start":"2013-09-25T07:57:23-04:00"}},{"adjudication":[{"amount":{"code":"USD","system":"urn:iso:std:iso:4217","value":81.67200000000001},"category":{"coding":[{"code":"https://bluebutton.cms.gov/resources/variables/line_coinsrnc_amt","display":"Line Beneficiary Coinsurance Amount","system":"https://bluebutton.cms.gov/resources/codesystem/adjudication"}]}},{"amount":{"code":"USD","system":"urn:iso:std:iso:4217","value":326.68800000000005},"category":{"coding":[{"code":"https://bluebutton.cms.gov/resources/variables/line_prvdr_pmt_amt","display":"Line Provider Payment Amount","system":"https://bluebutton.cms.gov/resources/codesystem/adjudication"}]}},{"amount":{"code":"USD","system":"urn:iso:std:iso:4217","value":408.36},"category":{"coding":[{"code":"https://bluebutton.cms.gov/resources/variables/line_sbmtd_chrg_amt","display":"Line Submitted Charge Amount","system":"https://bluebutton.cms.gov/resources/codesystem/adjudication"}]}},{"amount":{"code":"USD","system":"urn:iso:std:iso:4217","value":408.36},"category":{"coding":[{"code":"https://bluebutton.cms.gov/resources/variables/line_alowd_chrg_amt","display":"Line Allowed Charge Amount","system":"https://bluebutton.cms.gov/resources/codesystem/adjudication"}]}},{"amount":{"code":"USD","system":"urn:iso:std:iso:4217","value":0},"category":{"coding":[{"code":"https://bluebutton.cms.gov/resources/variables/line_bene_ptb_ddctbl_amt","display":"Line Beneficiary Part B Deductible Amount","system":"https://bluebutton.cms.gov/resources/codesystem/adjudication"}]}},{"category":{"coding":[{"code":"https://bluebutton.cms.gov/resources/variables/line_prcsg_ind_cd","display":"Line Processing Indicator Code","system":"https://bluebutton.cms.gov/resources/codesystem/adjudication"}]},"reason":{"coding":[{"code":"A","display":"Allowed","system":"https://bluebutton.cms.gov/resources/variables/line_prcsg_ind_cd"}]}}],"category":{"coding":[{"code":"1","display":"Medical care","system":"https://bluebutton.cms.gov/resources/variables/line_cms_type_srvc_cd"}]},"locationCodeableConcept":{"coding":[{"code":"21","display":"Inpatient Hospital","system":"https://bluebutton.cms.gov/resources/variables/line_place_of_srvc_cd"}]},"net":{"code":"USD","system":"urn:iso:std:iso:4217","value":408.36},"sequence":2,"service":{"coding":[{"code":"428191000124101","system":"http://snomed.info/sct","version":"v1"}]},"servicedPeriod":{"end":"2013-09-25T08:27:23-04:00","start":"2013-09-25T07:57:23-04:00"}}],"meta":{"lastUpdated":"2019-04-09T12:03:30.342391+00:00","versionId":"MTU1NDgxMTQxMDM0MjM5MTAwMA"},"organization":{"identifier":{"value":"3c1a6594-2deb-4ff5-972a-a209361ec3eb"}},"patient":{"reference":"Patient/0accf4d2-156a-425c-8400-33c073a0f661"},"payment":{"amount":{"code":"USD","system":"urn:iso:std:iso:4217","value":326.68800000000005}},"provider":{"identifier":{"value":"26c419ce-a137-417b-90ef-8da89cacc8e3"}},"referral":{"reference":"#1"},"resourceType":"ExplanationOfBenefit","status":"active","totalCost":{"code":"USD","system":"urn:iso:std:iso:4217","value":533.36},"type":{"coding":[{"code":"71","display":"Local carrier non-durable medical equipment, prosthetics, orthotics, and supplies (DMEPOS) claim","system":"https://bluebutton.cms.gov/resources/variables/nch_clm_type_cd"},{"code":"CARRIER","display":"EOB Type","system":"https://bluebutton.cms.gov/resources/codesystem/eob-type"},{"code":"professional","display":"Claim Type","system":"http://hl7.org/fhir/ex-claimtype"},{"code":"O","display":"Part B physician/supplier claim record (processed by local carriers; can include DMEPOS services)","system":"https://bluebutton.cms.gov/resources/variables/nch_near_line_rec_ident_cd"}]}}},{"resource":{"billablePeriod":{"end":"2012-02-09T07:27:23-05:00","start":"2011-02-09T07:27:23-05:00"},"careTeam":[{"provider":{"identifier":{"system":"http://hl7.org/fhir/sid/us-npi","value":"99999999"}},"role":{"coding":[{"code":"primary","display":"Primary Care Practitioner","system":"http://hl7.org/fhir/claimcareteamrole"}]},"sequence":1}],"claim":{"reference":"Claim/dcb689fe-c82c-4788-b09f-9918ad66847a"},"contained":[{"id":"1","intent":"order","recipient":[{"identifier":{"system":"http://hl7.org/fhir/sid/us-npi","value":"99999999"}}],"requester":{"agent":{"identifier":{"system":"http://hl7.org/fhir/sid/us-npi","value":"99999999"}}},"resourceType":"ReferralRequest","status":"completed","subject":{"reference":"Patient/0accf4d2-156a-425c-8400-33c073a0f661"}},{"id":"coverage","resourceType":"Coverage","type":{"text":"private"}}],"created":"2011-02-09T07:27:23-05:00","id":"0a08d170-83fd-4ab4-a821-5b132db5ec93","identifier":[{"system":"https://bluebutton.cms.gov/resources/variables/clm_id","value":"dcb689fe-c82c-4788-b09f-9918ad66847a"},{"system":"https://bluebutton.cms.gov/resources/identifier/claim-group","value":"99999999999"}],"insurance":{"coverage":{"reference":"#coverage"}},"item":[{"category":{"coding":[{"code":"1","display":"Medical care","system":"https://bluebutton.cms.gov/resources/variables/line_cms_type_srvc_cd"}]},"encounter":[{"reference":"Encounter/f80399f7-5182-45f8-9634-5c8186898bdf"}],"locationCodeableConcept":{"coding":[{"code":"21","display":"Inpatient Hospital","system":"https://bluebutton.cms.gov/resources/variables/line_place_of_srvc_cd"}]},"sequence":1,"servicedPeriod":{"end":"2011-02-09T07:27:23-05:00","start":"2011-02-09T06:57:23-05:00"}},{"adjudication":[{"amount":{"code":"USD","system":"urn:iso:std:iso:4217","value":128.08599999999998},"category":{"coding":[{"code":"https://bluebutton.cms.gov/resources/variables/line_coinsrnc_amt","display":"Line Beneficiary Coinsurance Amount","system":"https://bluebutton.cms.gov/resources/codesystem/adjudication"}]}},{"amount":{"code":"USD","system":"urn:iso:std:iso:4217","value":512.3439999999999},"category":{"coding":[{"code":"https://bluebutton.cms.gov/resources/variables/line_prvdr_pmt_amt","display":"Line Provider Payment Amount","system":"https://bluebutton.cms.gov/resources/codesystem/adjudication"}]}},{"amount":{"code":"USD","system":"urn:iso:std:iso:4217","value":640.43},"category":{"coding":[{"code":"https://bluebutton.cms.gov/resources/variables/line_sbmtd_chrg_amt","display":"Line Submitted Charge Amount","system":"https://bluebutton.cms.gov/resources/codesystem/adjudication"}]}},{"amount":{"code":"USD","system":"urn:iso:std:iso:4217","value":640.43},"category":{"coding":[{"code":"https://bluebutton.cms.gov/resources/variables/line_alowd_chrg_amt","display":"Line Allowed Charge Amount","system":"https://bluebutton.cms.gov/resources/codesystem/adjudication"}]}},{"amount":{"code":"USD","system":"urn:iso:std:iso:4217","value":0},"category":{"coding":[{"code":"https://bluebutton.cms.gov/resources/variables/line_bene_ptb_ddctbl_amt","display":"Line Beneficiary Part B Deductible Amount","system":"https://bluebutton.cms.gov/resources/codesystem/adjudication"}]}},{"category":{"coding":[{"code":"https://bluebutton.cms.gov/resources/variables/line_prcsg_ind_cd","display":"Line Processing Indicator Code","system":"https://bluebutton.cms.gov/resources/codesystem/adjudication"}]},"reason":{"coding":[{"code":"A","display":"Allowed","system":"https://bluebutton.cms.gov/resources/variables/line_prcsg_ind_cd"}]}}],"category":{"coding":[{"code":"1","display":"Medical care","system":"https://bluebutton.cms.gov/resources/variables/line_cms_type_srvc_cd"}]},"locationCodeableConcept":{"coding":[{"code":"21","display":"Inpatient Hospital","system":"https://bluebutton.cms.gov/resources/variables/line_place_of_srvc_cd"}]},"net":{"code":"USD","system":"urn:iso:std:iso:4217","value":640.43},"sequence":2,"service":{"coding":[{"code":"428191000124101","system":"http://snomed.info/sct","version":"v1"}]},"servicedPeriod":{"end":"2011-02-09T07:27:23-05:00","start":"2011-02-09T06:57:23-05:00"}}],"meta":{"lastUpdated":"2019-04-09T12:03:27.254593+00:00","versionId":"MTU1NDgxMTQwNzI1NDU5MzAwMA"},"organization":{"identifier":{"value":"3c1a6594-2deb-4ff5-972a-a209361ec3eb"}},"patient":{"reference":"Patient/0accf4d2-156a-425c-8400-33c073a0f661"},"payment":{"amount":{"code":"USD","system":"urn:iso:std:iso:4217","value":512.3439999999999}},"provider":{"identifier":{"value":"26c419ce-a137-417b-90ef-8da89cacc8e3"}},"referral":{"reference":"#1"},"resourceType":"ExplanationOfBenefit","status":"active","totalCost":{"code":"USD","system":"urn:iso:std:iso:4217","value":765.43},"type":{"coding":[{"code":"71","display":"Local carrier non-durable medical equipment, prosthetics, orthotics, and supplies (DMEPOS) claim","system":"https://bluebutton.cms.gov/resources/variables/nch_clm_type_cd"},{"code":"CARRIER","display":"EOB Type","system":"https://bluebutton.cms.gov/resources/codesystem/eob-type"},{"code":"professional","display":"Claim Type","system":"http://hl7.org/fhir/ex-claimtype"},{"code":"O","display":"Part B physician/supplier claim record (processed by local carriers; can include DMEPOS services)","system":"https://bluebutton.cms.gov/resources/variables/nch_near_line_rec_ident_cd"}]}}},{"resource":{"billablePeriod":{"end":"2011-03-24T08:12:23-04:00","start":"2010-03-24T08:12:23-04:00"},"careTeam":[{"provider":{"identifier":{"system":"http://hl7.org/fhir/sid/us-npi","value":"99999999"}},"role":{"coding":[{"code":"primary","display":"Primary Care Practitioner","system":"http://hl7.org/fhir/claimcareteamrole"}]},"sequence":1}],"claim":{"reference":"Claim/dcdb10fa-d5c9-47c3-b8d7-d878928020d4"},"contained":[{"id":"1","intent":"order","recipient":[{"identifier":{"system":"http://hl7.org/fhir/sid/us-npi","value":"99999999"}}],"requester":{"agent":{"identifier":{"system":"http://hl7.org/fhir/sid/us-npi","value":"99999999"}}},"resourceType":"ReferralRequest","status":"completed","subject":{"reference":"Patient/0accf4d2-156a-425c-8400-33c073a0f661"}},{"id":"coverage","resourceType":"Coverage","type":{"text":"private"}}],"created":"2010-03-24T08:12:23-04:00","id":"0b972858-5c51-44bf-a3d3-14469f70f4bd","identifier":[{"system":"https://bluebutton.cms.gov/resources/variables/clm_id","value":"dcdb10fa-d5c9-47c3-b8d7-d878928020d4"},{"system":"https://bluebutton.cms.gov/resources/identifier/claim-group","value":"99999999999"}],"insurance":{"coverage":{"reference":"#coverage"}},"item":[{"category":{"coding":[{"code":"1","display":"Medical care","system":"https://bluebutton.cms.gov/resources/variables/line_cms_type_srvc_cd"}]},"encounter":[{"reference":"Encounter/f7302771-7858-4a66-bbdd-a20a7e01e774"}],"locationCodeableConcept":{"coding":[{"code":"21","display":"Inpatient Hospital","system":"https://bluebutton.cms.gov/resources/variables/line_place_of_srvc_cd"}]},"sequence":1,"servicedPeriod":{"end":"2010-03-24T08:12:23-04:00","start":"2010-03-24T07:57:23-04:00"}}],"meta":{"lastUpdated":"2019-04-09T12:03:27.221287+00:00","versionId":"MTU1NDgxMTQwNzIyMTI4NzAwMA"},"organization":{"identifier":{"value":"3c1a6594-2deb-4ff5-972a-a209361ec3eb"}},"patient":{"reference":"Patient/0accf4d2-156a-425c-8400-33c073a0f661"},"payment":{"amount":{"code":"USD","system":"urn:iso:std:iso:4217","value":0}},"provider":{"identifier":{"value":"26c419ce-a137-417b-90ef-8da89cacc8e3"}},"referral":{"reference":"#1"},"resourceType":"ExplanationOfBenefit","status":"active","totalCost":{"code":"USD","system":"urn:iso:std:iso:4217","value":125},"type":{"coding":[{"code":"71","display":"Local carrier non-durable medical equipment, prosthetics, orthotics, and supplies (DMEPOS) claim","system":"https://bluebutton.cms.gov/resources/variables/nch_clm_type_cd"},{"code":"CARRIER","display":"EOB Type","system":"https://bluebutton.cms.gov/resources/codesystem/eob-type"},{"code":"professional","display":"Claim Type","system":"http://hl7.org/fhir/ex-claimtype"},{"code":"O","display":"Part B physician/supplier claim record (processed by local carriers; can include DMEPOS services)","system":"https://bluebutton.cms.gov/resources/variables/nch_near_line_rec_ident_cd"}]}}},{"resource":{"billablePeriod":{"end":"2018-08-09T08:12:23-04:00","start":"2017-08-09T08:12:23-04:00"},"careTeam":[{"provider":{"identifier":{"system":"http://hl7.org/fhir/sid/us-npi","value":"99999999"}},"role":{"coding":[{"code":"primary","display":"Primary Care Practitioner","system":"http://hl7.org/fhir/claimcareteamrole"}]},"sequence":1}],"claim":{"reference":"Claim/ab64ffe9-33a1-45ea-abe2-dcedb5236d49"},"contained":[{"id":"1","intent":"order","recipient":[{"identifier":{"system":"http://hl7.org/fhir/sid/us-npi","value":"99999999"}}],"requester":{"agent":{"identifier":{"system":"http://hl7.org/fhir/sid/us-npi","value":"99999999"}}},"resourceType":"ReferralRequest","status":"completed","subject":{"reference":"Patient/0accf4d2-156a-425c-8400-33c073a0f661"}},{"id":"coverage","resourceType":"Coverage","type":{"text":"private"}}],"created":"2017-08-09T08:12:23-04:00","id":"0d9201bf-4261-484a-9615-7d82b0481709","identifier":[{"system":"https://bluebutton.cms.gov/resources/variables/clm_id","value":"ab64ffe9-33a1-45ea-abe2-dcedb5236d49"},{"system":"https://bluebutton.cms.gov/resources/identifier/claim-group","value":"99999999999"}],"insurance":{"coverage":{"reference":"#coverage"}},"item":[{"category":{"coding":[{"code":"1","display":"Medical care","system":"https://bluebutton.cms.gov/resources/variables/line_cms_type_srvc_cd"}]},"encounter":[{"reference":"Encounter/e382b59e-0128-468b-be66-3d25673150d5"}],"locationCodeableConcept":{"coding":[{"code":"21","display":"Inpatient Hospital","system":"https://bluebutton.cms.gov/resources/variables/line_place_of_srvc_cd"}]},"sequence":1,"servicedPeriod":{"end":"2017-08-09T08:12:23-04:00","start":"2017-08-09T07:57:23-04:00"}}],"meta":{"lastUpdated":"2019-04-09T12:03:36.495022+00:00","versionId":"MTU1NDgxMTQxNjQ5NTAyMjAwMA"},"organization":{"identifier":{"value":"057e5b30-6566-4cff-80cc-1e899ab80bae"}},"patient":{"reference":"Patient/0accf4d2-156a-425c-8400-33c073a0f661"},"payment":{"amount":{"code":"USD","system":"urn:iso:std:iso:4217","value":0}},"provider":{"identifier":{"value":"4e75658e-2496-4900-a2a4-e8aa600269ed"}},"referral":{"reference":"#1"},"resourceType":"ExplanationOfBenefit","status":"active","totalCost":{"code":"USD","system":"urn:iso:std:iso:4217","value":125},"type":{"coding":[{"code":"71","display":"Local carrier non-durable medical equipment, prosthetics, orthotics, and supplies (DMEPOS) claim","system":"https://bluebutton.cms.gov/resources/variables/nch_clm_type_cd"},{"code":"CARRIER","display":"EOB Type","system":"https://bluebutton.cms.gov/resources/codesystem/eob-type"},{"code":"professional","display":"Claim Type","system":"http://hl7.org/fhir/ex-claimtype"},{"code":"O","display":"Part B physician/supplier claim record (processed by local carriers; can include DMEPOS services)","system":"https://bluebutton.cms.gov/resources/variables/nch_near_line_rec_ident_cd"}]}}},{"resource":{"billablePeriod":{"end":"2013-01-04T07:27:23-05:00","start":"2012-01-04T07:27:23-05:00"},"careTeam":[{"provider":{"identifier":{"system":"http://hl7.org/fhir/sid/us-npi","value":"99999999"}},"role":{"coding":[{"code":"primary","display":"Primary Care Practitioner","system":"http://hl7.org/fhir/claimcareteamrole"}]},"sequence":1}],"claim":{"reference":"Claim/453fc00a-50ea-4a2b-958f-d89b3fe5e071"},"contained":[{"id":"1","intent":"order","recipient":[{"identifier":{"system":"http://hl7.org/fhir/sid/us-npi","value":"99999999"}}],"requester":{"agent":{"identifier":{"system":"http://hl7.org/fhir/sid/us-npi","value":"99999999"}}},"resourceType":"ReferralRequest","status":"completed","subject":{"reference":"Patient/0accf4d2-156a-425c-8400-33c073a0f661"}},{"id":"coverage","resourceType":"Coverage","type":{"text":"private"}}],"created":"2012-01-04T07:27:23-05:00","id":"0ddc0d81-4d9d-451c-9a98-0128bf543c52","identifier":[{"system":"https://bluebutton.cms.gov/resources/variables/clm_id","value":"453fc00a-50ea-4a2b-958f-d89b3fe5e071"},{"system":"https://bluebutton.cms.gov/resources/identifier/claim-group","value":"99999999999"}],"insurance":{"coverage":{"reference":"#coverage"}},"item":[{"category":{"coding":[{"code":"1","display":"Medical care","system":"https://bluebutton.cms.gov/resources/variables/line_cms_type_srvc_cd"}]},"encounter":[{"reference":"Encounter/61433c7a-f47d-4da2-8703-76c737b35890"}],"locationCodeableConcept":{"coding":[{"code":"21","display":"Inpatient Hospital","system":"https://bluebutton.cms.gov/resources/variables/line_place_of_srvc_cd"}]},"sequence":1,"servicedPeriod":{"end":"2012-01-04T07:27:23-05:00","start":"2012-01-04T06:57:23-05:00"}},{"adjudication":[{"amount":{"code":"USD","system":"urn:iso:std:iso:4217","value":81.57400000000001},"category":{"coding":[{"code":"https://bluebutton.cms.gov/resources/variables/line_coinsrnc_amt","display":"Line Beneficiary Coinsurance Amount","system":"https://bluebutton.cms.gov/resources/codesystem/adjudication"}]}},{"amount":{"code":"USD","system":"urn:iso:std:iso:4217","value":326.29600000000005},"category":{"coding":[{"code":"https://bluebutton.cms.gov/resources/variables/line_prvdr_pmt_amt","display":"Line Provider Payment Amount","system":"https://bluebutton.cms.gov/resources/codesystem/adjudication"}]}},{"amount":{"code":"USD","system":"urn:iso:std:iso:4217","value":407.87},"category":{"coding":[{"code":"https://bluebutton.cms.gov/resources/variables/line_sbmtd_chrg_amt","display":"Line Submitted Charge Amount","system":"https://bluebutton.cms.gov/resources/codesystem/adjudication"}]}},{"amount":{"code":"USD","system":"urn:iso:std:iso:4217","value":407.87},"category":{"coding":[{"code":"https://bluebutton.cms.gov/resources/variables/line_alowd_chrg_amt","display":"Line Allowed Charge Amount","system":"https://bluebutton.cms.gov/resources/codesystem/adjudication"}]}},{"amount":{"code":"USD","system":"urn:iso:std:iso:4217","value":0},"category":{"coding":[{"code":"https://bluebutton.cms.gov/resources/variables/line_bene_ptb_ddctbl_amt","display":"Line Beneficiary Part B Deductible Amount","system":"https://bluebutton.cms.gov/resources/codesystem/adjudication"}]}},{"category":{"coding":[{"code":"https://bluebutton.cms.gov/resources/variables/line_prcsg_ind_cd","display":"Line Processing Indicator Code","system":"https://bluebutton.cms.gov/resources/codesystem/adjudication"}]},"reason":{"coding":[{"code":"A","display":"Allowed","system":"https://bluebutton.cms.gov/resources/variables/line_prcsg_ind_cd"}]}}],"category":{"coding":[{"code":"1","display":"Medical care","system":"https://bluebutton.cms.gov/resources/variables/line_cms_type_srvc_cd"}]},"locationCodeableConcept":{"coding":[{"code":"21","display":"Inpatient Hospital","system":"https://bluebutton.cms.gov/resources/variables/line_place_of_srvc_cd"}]},"net":{"code":"USD","system":"urn:iso:std:iso:4217","value":407.87},"sequence":2,"service":{"coding":[{"code":"428191000124101","system":"http://snomed.info/sct","version":"v1"}]},"servicedPeriod":{"end":"2012-01-04T07:27:23-05:00","start":"2012-01-04T06:57:23-05:00"}}],"meta":{"lastUpdated":"2019-04-09T12:03:28.345801+00:00","versionId":"MTU1NDgxMTQwODM0NTgwMTAwMA"},"organization":{"identifier":{"value":"3c1a6594-2deb-4ff5-972a-a209361ec3eb"}},"patient":{"reference":"Patient/0accf4d2-156a-425c-8400-33c073a0f661"},"payment":{"amount":{"code":"USD","system":"urn:iso:std:iso:4217","value":326.29600000000005}},"provider":{"identifier":{"value":"26c419ce-a137-417b-90ef-8da89cacc8e3"}},"referral":{"reference":"#1"},"resourceType":"ExplanationOfBenefit","status":"active","totalCost":{"code":"USD","system":"urn:iso:std:iso:4217","value":532.87},"type":{"coding":[{"code":"71","display":"Local carrier non-durable medical equipment, prosthetics, orthotics, and supplies (DMEPOS) claim","system":"https://bluebutton.cms.gov/resources/variables/nch_clm_type_cd"},{"code":"CARRIER","display":"EOB Type","system":"https://bluebutton.cms.gov/resources/codesystem/eob-type"},{"code":"professional","display":"Claim Type","system":"http://hl7.org/fhir/ex-claimtype"},{"code":"O","display":"Part B physician/supplier claim record (processed by local carriers; can include DMEPOS services)","system":"https://bluebutton.cms.gov/resources/variables/nch_near_line_rec_ident_cd"}]}}},{"resource":{"billablePeriod":{"end":"1979-11-19T09:27:23-05:00","start":"1978-11-19T09:27:23-05:00"},"careTeam":[{"provider":{"identifier":{"system":"http://hl7.org/fhir/sid/us-npi","value":"99999999"}},"role":{"coding":[{"code":"primary","display":"Primary Care Practitioner","system":"http://hl7.org/fhir/claimcareteamrole"}]},"sequence":1}],"claim":{"reference":"Claim/d9a57e00-c0d5-4979-a515-816d0e0b23ff"},"contained":[{"id":"1","intent":"order","recipient":[{"identifier":{"system":"http://hl7.org/fhir/sid/us-npi","value":"99999999"}}],"requester":{"agent":{"identifier":{"system":"http://hl7.org/fhir/sid/us-npi","value":"99999999"}}},"resourceType":"ReferralRequest","status":"completed","subject":{"reference":"Patient/0accf4d2-156a-425c-8400-33c073a0f661"}},{"id":"coverage","resourceType":"Coverage","type":{"text":"private"}}],"created":"1978-11-19T09:27:23-05:00","id":"10b56cf1-768a-4567-a80f-42dfd3aecf4e","identifier":[{"system":"https://bluebutton.cms.gov/resources/variables/clm_id","value":"d9a57e00-c0d5-4979-a515-816d0e0b23ff"},{"system":"https://bluebutton.cms.gov/resources/identifier/claim-group","value":"99999999999"}],"insurance":{"coverage":{"reference":"#coverage"}},"item":[{"category":{"coding":[{"code":"1","display":"Medical care","system":"https://bluebutton.cms.gov/resources/variables/line_cms_type_srvc_cd"}]},"encounter":[{"reference":"Encounter/66ac8ffd-0fd7-4850-af70-751b44809da7"}],"locationCodeableConcept":{"coding":[{"code":"23","display":"Emergency Room","system":"https://bluebutton.cms.gov/resources/variables/line_place_of_srvc_cd"}]},"sequence":1,"servicedPeriod":{"end":"1978-11-19T09:27:23-05:00","start":"1978-11-19T06:57:23-05:00"}}],"meta":{"lastUpdated":"2019-04-09T12:03:26.164394+00:00","versionId":"MTU1NDgxMTQwNjE2NDM5NDAwMA"},"organization":{"identifier":{"value":"3c1a6594-2deb-4ff5-972a-a209361ec3eb"}},"patient":{"reference":"Patient/0accf4d2-156a-425c-8400-33c073a0f661"},"payment":{"amount":{"code":"USD","system":"urn:iso:std:iso:4217","value":0}},"provider":{"identifier":{"value":"26c419ce-a137-417b-90ef-8da89cacc8e3"}},"referral":{"reference":"#1"},"resourceType":"ExplanationOfBenefit","status":"active","totalCost":{"code":"USD","system":"urn:iso:std:iso:4217","value":125},"type":{"coding":[{"code":"71","display":"Local carrier non-durable medical equipment, prosthetics, orthotics, and supplies (DMEPOS) claim","system":"https://bluebutton.cms.gov/resources/variables/nch_clm_type_cd"},{"code":"CARRIER","display":"EOB Type","system":"https://bluebutton.cms.gov/resources/codesystem/eob-type"},{"code":"professional","display":"Claim Type","system":"http://hl7.org/fhir/ex-claimtype"},{"code":"O","display":"Part B physician/supplier claim record (processed by local carriers; can include DMEPOS services)","system":"https://bluebutton.cms.gov/resources/variables/nch_near_line_rec_ident_cd"}]}}},{"resource":{"billablePeriod":{"end":"2017-05-18T08:27:23-04:00","start":"2016-05-18T08:27:23-04:00"},"careTeam":[{"provider":{"identifier":{"system":"http://hl7.org/fhir/sid/us-npi","value":"99999999"}},"role":{"coding":[{"code":"primary","display":"Primary Care Practitioner","system":"http://hl7.org/fhir/claimcareteamrole"}]},"sequence":1}],"claim":{"reference":"Claim/9af9df53-c547-41e0-8cfa-b5ce17614d9c"},"contained":[{"id":"1","intent":"order","recipient":[{"identifier":{"system":"http://hl7.org/fhir/sid/us-npi","value":"99999999"}}],"requester":{"agent":{"identifier":{"system":"http://hl7.org/fhir/sid/us-npi","value":"99999999"}}},"resourceType":"ReferralRequest","status":"completed","subject":{"reference":"Patient/0accf4d2-156a-425c-8400-33c073a0f661"}},{"id":"coverage","resourceType":"Coverage","type":{"text":"private"}}],"created":"2016-05-18T08:27:23-04:00","id":"10bf0344-8521-432e-9f1e-cbd568ddb84a","identifier":[{"system":"https://bluebutton.cms.gov/resources/variables/clm_id","value":"9af9df53-c547-41e0-8cfa-b5ce17614d9c"},{"system":"https://bluebutton.cms.gov/resources/identifier/claim-group","value":"99999999999"}],"insurance":{"coverage":{"reference":"#coverage"}},"item":[{"category":{"coding":[{"code":"1","display":"Medical care","system":"https://bluebutton.cms.gov/resources/variables/line_cms_type_srvc_cd"}]},"encounter":[{"reference":"Encounter/e5110187-2347-412c-ac6d-75283ba352d1"}],"locationCodeableConcept":{"coding":[{"code":"21","display":"Inpatient Hospital","system":"https://bluebutton.cms.gov/resources/variables/line_place_of_srvc_cd"}]},"sequence":1,"servicedPeriod":{"end":"2016-05-18T08:27:23-04:00","start":"2016-05-18T07:57:23-04:00"}},{"adjudication":[{"amount":{"code":"USD","system":"urn:iso:std:iso:4217","value":122.61},"category":{"coding":[{"code":"https://bluebutton.cms.gov/resources/variables/line_coinsrnc_amt","display":"Line Beneficiary Coinsurance Amount","system":"https://bluebutton.cms.gov/resources/codesystem/adjudication"}]}},{"amount":{"code":"USD","system":"urn:iso:std:iso:4217","value":490.44},"category":{"coding":[{"code":"https://bluebutton.cms.gov/resources/variables/line_prvdr_pmt_amt","display":"Line Provider Payment Amount","system":"https://bluebutton.cms.gov/resources/codesystem/adjudication"}]}},{"amount":{"code":"USD","system":"urn:iso:std:iso:4217","value":613.05},"category":{"coding":[{"code":"https://bluebutton.cms.gov/resources/variables/line_sbmtd_chrg_amt","display":"Line Submitted Charge Amount","system":"https://bluebutton.cms.gov/resources/codesystem/adjudication"}]}},{"amount":{"code":"USD","system":"urn:iso:std:iso:4217","value":613.05},"category":{"coding":[{"code":"https://bluebutton.cms.gov/resources/variables/line_alowd_chrg_amt","display":"Line Allowed Charge Amount","system":"https://bluebutton.cms.gov/resources/codesystem/adjudication"}]}},{"amount":{"code":"USD","system":"urn:iso:std:iso:4217","value":0},"category":{"coding":[{"code":"https://bluebutton.cms.gov/resources/variables/line_bene_ptb_ddctbl_amt","display":"Line Beneficiary Part B Deductible Amount","system":"https://bluebutton.cms.gov/resources/codesystem/adjudication"}]}},{"category":{"coding":[{"code":"https://bluebutton.cms.gov/resources/variables/line_prcsg_ind_cd","display":"Line Processing Indicator Code","system":"https://bluebutton.cms.gov/resources/codesystem/adjudication"}]},"reason":{"coding":[{"code":"A","display":"Allowed","system":"https://bluebutton.cms.gov/resources/variables/line_prcsg_ind_cd"}]}}],"category":{"coding":[{"code":"1","display":"Medical care","system":"https://bluebutton.cms.gov/resources/variables/line_cms_type_srvc_cd"}]},"locationCodeableConcept":{"coding":[{"code":"21","display":"Inpatient Hospital","system":"https://bluebutton.cms.gov/resources/variables/line_place_of_srvc_cd"}]},"net":{"code":"USD","system":"urn:iso:std:iso:4217","value":613.05},"sequence":2,"service":{"coding":[{"code":"428191000124101","system":"http://snomed.info/sct","version":"v1"}]},"servicedPeriod":{"end":"2016-05-18T08:27:23-04:00","start":"2016-05-18T07:57:23-04:00"}}],"meta":{"lastUpdated":"2019-04-09T12:03:34.437881+00:00","versionId":"MTU1NDgxMTQxNDQzNzg4MTAwMA"},"organization":{"identifier":{"value":"3c1a6594-2deb-4ff5-972a-a209361ec3eb"}},"patient":{"reference":"Patient/0accf4d2-156a-425c-8400-33c073a0f661"},"payment":{"amount":{"code":"USD","system":"urn:iso:std:iso:4217","value":490.44}},"provider":{"identifier":{"value":"26c419ce-a137-417b-90ef-8da89cacc8e3"}},"referral":{"reference":"#1"},"resourceType":"ExplanationOfBenefit","status":"active","totalCost":{"code":"USD","system":"urn:iso:std:iso:4217","value":738.05},"type":{"coding":[{"code":"71","display":"Local carrier non-durable medical equipment, prosthetics, orthotics, and supplies (DMEPOS) claim","system":"https://bluebutton.cms.gov/resources/variables/nch_clm_type_cd"},{"code":"CARRIER","display":"EOB Type","system":"https://bluebutton.cms.gov/resources/codesystem/eob-type"},{"code":"professional","display":"Claim Type","system":"http://hl7.org/fhir/ex-claimtype"},{"code":"O","display":"Part B physician/supplier claim record (processed by local carriers; can include DMEPOS services)","system":"https://bluebutton.cms.gov/resources/variables/nch_near_line_rec_ident_cd"}]}}},{"resource":{"billablePeriod":{"end":"2018-03-08T07:12:23-05:00","start":"2017-03-08T07:12:23-05:00"},"careTeam":[{"provider":{"identifier":{"system":"http://hl7.org/fhir/sid/us-npi","value":"99999999"}},"role":{"coding":[{"code":"primary","display":"Primary Care Practitioner","system":"http://hl7.org/fhir/claimcareteamrole"}]},"sequence":1}],"claim":{"reference":"Claim/02c0f62b-a3b8-430f-b64d-a36614d3bbfe"},"contained":[{"id":"1","intent":"order","recipient":[{"identifier":{"system":"http://hl7.org/fhir/sid/us-npi","value":"99999999"}}],"requester":{"agent":{"identifier":{"system":"http://hl7.org/fhir/sid/us-npi","value":"99999999"}}},"resourceType":"ReferralRequest","status":"completed","subject":{"reference":"Patient/0accf4d2-156a-425c-8400-33c073a0f661"}},{"id":"coverage","resourceType":"Coverage","type":{"text":"private"}}],"created":"2017-03-08T07:12:23-05:00","id":"14d144ce-2da5-45cc-905f-08a374a2670b","identifier":[{"system":"https://bluebutton.cms.gov/resources/variables/clm_id","value":"02c0f62b-a3b8-430f-b64d-a36614d3bbfe"},{"system":"https://bluebutton.cms.gov/resources/identifier/claim-group","value":"99999999999"}],"insurance":{"coverage":{"reference":"#coverage"}},"item":[{"category":{"coding":[{"code":"1","display":"Medical care","system":"https://bluebutton.cms.gov/resources/variables/line_cms_type_srvc_cd"}]},"encounter":[{"reference":"Encounter/b488ed52-4836-40bd-a6a1-863655aef9b4"}],"locationCodeableConcept":{"coding":[{"code":"21","display":"Inpatient Hospital","system":"https://bluebutton.cms.gov/resources/variables/line_place_of_srvc_cd"}]},"sequence":1,"servicedPeriod":{"end":"2017-03-08T07:12:23-05:00","start":"2017-03-08T06:57:23-05:00"}}],"meta":{"lastUpdated":"2019-04-09T12:03:35.487976+00:00","versionId":"MTU1NDgxMTQxNTQ4Nzk3NjAwMA"},"organization":{"identifier":{"value":"057e5b30-6566-4cff-80cc-1e899ab80bae"}},"patient":{"reference":"Patient/0accf4d2-156a-425c-8400-33c073a0f661"},"payment":{"amount":{"code":"USD","system":"urn:iso:std:iso:4217","value":0}},"provider":{"identifier":{"value":"4e75658e-2496-4900-a2a4-e8aa600269ed"}},"referral":{"reference":"#1"},"resourceType":"ExplanationOfBenefit","status":"active","totalCost":{"code":"USD","system":"urn:iso:std:iso:4217","value":125},"type":{"coding":[{"code":"71","display":"Local carrier non-durable medical equipment, prosthetics, orthotics, and supplies (DMEPOS) claim","system":"https://bluebutton.cms.gov/resources/variables/nch_clm_type_cd"},{"code":"CARRIER","display":"EOB Type","system":"https://bluebutton.cms.gov/resources/codesystem/eob-type"},{"code":"professional","display":"Claim Type","system":"http://hl7.org/fhir/ex-claimtype"},{"code":"O","display":"Part B physician/supplier claim record (processed by local carriers; can include DMEPOS services)","system":"https://bluebutton.cms.gov/resources/variables/nch_near_line_rec_ident_cd"}]}}},{"resource":{"billablePeriod":{"end":"2018-09-06T08:12:23-04:00","start":"2017-09-06T08:12:23-04:00"},"careTeam":[{"provider":{"identifier":{"system":"http://hl7.org/fhir/sid/us-npi","value":"99999999"}},"role":{"coding":[{"code":"primary","display":"Primary Care Practitioner","system":"http://hl7.org/fhir/claimcareteamrole"}]},"sequence":1}],"claim":{"reference":"Claim/01fca86e-45a9-4ce7-a1b1-45fd1a8d84bd"},"contained":[{"id":"1","intent":"order","recipient":[{"identifier":{"system":"http://hl7.org/fhir/sid/us-npi","value":"99999999"}}],"requester":{"agent":{"identifier":{"system":"http://hl7.org/fhir/sid/us-npi","value":"99999999"}}},"resourceType":"ReferralRequest","status":"completed","subject":{"reference":"Patient/0accf4d2-156a-425c-8400-33c073a0f661"}},{"id":"coverage","resourceType":"Coverage","type":{"text":"private"}}],"created":"2017-09-06T08:12:23-04:00","id":"171119e5-4fe2-4958-87c1-da95260c0634","identifier":[{"system":"https://bluebutton.cms.gov/resources/variables/clm_id","value":"01fca86e-45a9-4ce7-a1b1-45fd1a8d84bd"},{"system":"https://bluebutton.cms.gov/resources/identifier/claim-group","value":"99999999999"}],"insurance":{"coverage":{"reference":"#coverage"}},"item":[{"category":{"coding":[{"code":"1","display":"Medical care","system":"https://bluebutton.cms.gov/resources/variables/line_cms_type_srvc_cd"}]},"encounter":[{"reference":"Encounter/b622491d-46a5-4f8f-8948-e869329c0d47"}],"locationCodeableConcept":{"coding":[{"code":"21","display":"Inpatient Hospital","system":"https://bluebutton.cms.gov/resources/variables/line_place_of_srvc_cd"}]},"sequence":1,"servicedPeriod":{"end":"2017-09-06T08:12:23-04:00","start":"2017-09-06T07:57:23-04:00"}}],"meta":{"lastUpdated":"2019-04-09T12:03:36.489774+00:00","versionId":"MTU1NDgxMTQxNjQ4OTc3NDAwMA"},"organization":{"identifier":{"value":"057e5b30-6566-4cff-80cc-1e899ab80bae"}},"patient":{"reference":"Patient/0accf4d2-156a-425c-8400-33c073a0f661"},"payment":{"amount":{"code":"USD","system":"urn:iso:std:iso:4217","value":0}},"provider":{"identifier":{"value":"4e75658e-2496-4900-a2a4-e8aa600269ed"}},"referral":{"reference":"#1"},"resourceType":"ExplanationOfBenefit","status":"active","totalCost":{"code":"USD","system":"urn:iso:std:iso:4217","value":125},"type":{"coding":[{"code":"71","display":"Local carrier non-durable medical equipment, prosthetics, orthotics, and supplies (DMEPOS) claim","system":"https://bluebutton.cms.gov/resources/variables/nch_clm_type_cd"},{"code":"CARRIER","display":"EOB Type","system":"https://bluebutton.cms.gov/resources/codesystem/eob-type"},{"code":"professional","display":"Claim Type","system":"http://hl7.org/fhir/ex-claimtype"},{"code":"O","display":"Part B physician/supplier claim record (processed by local carriers; can include DMEPOS services)","system":"https://bluebutton.cms.gov/resources/variables/nch_near_line_rec_ident_cd"}]}}},{"resource":{"billablePeriod":{"end":"2019-12-05T07:27:23-05:00","start":"2018-12-05T07:27:23-05:00"},"careTeam":[{"provider":{"identifier":{"system":"http://hl7.org/fhir/sid/us-npi","value":"99999999"}},"role":{"coding":[{"code":"primary","display":"Primary Care Practitioner","system":"http://hl7.org/fhir/claimcareteamrole"}]},"sequence":1}],"claim":{"reference":"Claim/ca211a9a-fe5a-4861-adbc-0d6768fd1e84"},"contained":[{"id":"1","intent":"order","recipient":[{"identifier":{"system":"http://hl7.org/fhir/sid/us-npi","value":"99999999"}}],"requester":{"agent":{"identifier":{"system":"http://hl7.org/fhir/sid/us-npi","value":"99999999"}}},"resourceType":"ReferralRequest","status":"completed","subject":{"reference":"Patient/0accf4d2-156a-425c-8400-33c073a0f661"}},{"id":"coverage","resourceType":"Coverage","type":{"text":"private"}}],"created":"2018-12-05T07:27:23-05:00","id":"1ac4ce0a-53c6-43d1-9b86-0a4522ac9e0e","identifier":[{"system":"https://bluebutton.cms.gov/resources/variables/clm_id","value":"ca211a9a-fe5a-4861-adbc-0d6768fd1e84"},{"system":"https://bluebutton.cms.gov/resources/identifier/claim-group","value":"99999999999"}],"insurance":{"coverage":{"reference":"#coverage"}},"item":[{"category":{"coding":[{"code":"1","display":"Medical care","system":"https://bluebutton.cms.gov/resources/variables/line_cms_type_srvc_cd"}]},"encounter":[{"reference":"Encounter/8075aa3d-545e-4c34-aae0-72b8df9e4592"}],"locationCodeableConcept":{"coding":[{"code":"21","display":"Inpatient Hospital","system":"https://bluebutton.cms.gov/resources/variables/line_place_of_srvc_cd"}]},"sequence":1,"servicedPeriod":{"end":"2018-12-05T07:27:23-05:00","start":"2018-12-05T06:57:23-05:00"}},{"adjudication":[{"amount":{"code":"USD","system":"urn:iso:std:iso:4217","value":112.178},"category":{"coding":[{"code":"https://bluebutton.cms.gov/resources/variables/line_coinsrnc_amt","display":"Line Beneficiary Coinsurance Amount","system":"https://bluebutton.cms.gov/resources/codesystem/adjudication"}]}},{"amount":{"code":"USD","system":"urn:iso:std:iso:4217","value":448.712},"category":{"coding":[{"code":"https://bluebutton.cms.gov/resources/variables/line_prvdr_pmt_amt","display":"Line Provider Payment Amount","system":"https://bluebutton.cms.gov/resources/codesystem/adjudication"}]}},{"amount":{"code":"USD","system":"urn:iso:std:iso:4217","value":560.89},"category":{"coding":[{"code":"https://bluebutton.cms.gov/resources/variables/line_sbmtd_chrg_amt","display":"Line Submitted Charge Amount","system":"https://bluebutton.cms.gov/resources/codesystem/adjudication"}]}},{"amount":{"code":"USD","system":"urn:iso:std:iso:4217","value":560.89},"category":{"coding":[{"code":"https://bluebutton.cms.gov/resources/variables/line_alowd_chrg_amt","display":"Line Allowed Charge Amount","system":"https://bluebutton.cms.gov/resources/codesystem/adjudication"}]}},{"amount":{"code":"USD","system":"urn:iso:std:iso:4217","value":0},"category":{"coding":[{"code":"https://bluebutton.cms.gov/resources/variables/line_bene_ptb_ddctbl_amt","display":"Line Beneficiary Part B Deductible Amount","system":"https://bluebutton.cms.gov/resources/codesystem/adjudication"}]}},{"category":{"coding":[{"code":"https://bluebutton.cms.gov/resources/variables/line_prcsg_ind_cd","display":"Line Processing Indicator Code","system":"https://bluebutton.cms.gov/resources/codesystem/adjudication"}]},"reason":{"coding":[{"code":"A","display":"Allowed","system":"https://bluebutton.cms.gov/resources/variables/line_prcsg_ind_cd"}]}}],"category":{"coding":[{"code":"1","display":"Medical care","system":"https://bluebutton.cms.gov/resources/variables/line_cms_type_srvc_cd"}]},"locationCodeableConcept":{"coding":[{"code":"21","display":"Inpatient Hospital","system":"https://bluebutton.cms.gov/resources/variables/line_place_of_srvc_cd"}]},"net":{"code":"USD","system":"urn:iso:std:iso:4217","value":560.89},"sequence":2,"service":{"coding":[{"code":"428191000124101","system":"http://snomed.info/sct","version":"v1"}]},"servicedPeriod":{"end":"2018-12-05T07:27:23-05:00","start":"2018-12-05T06:57:23-05:00"}}],"meta":{"lastUpdated":"2019-04-09T12:03:37.501813+00:00","versionId":"MTU1NDgxMTQxNzUwMTgxMzAwMA"},"organization":{"identifier":{"value":"3c1a6594-2deb-4ff5-972a-a209361ec3eb"}},"patient":{"reference":"Patient/0accf4d2-156a-425c-8400-33c073a0f661"},"payment":{"amount":{"code":"USD","system":"urn:iso:std:iso:4217","value":448.712}},"provider":{"identifier":{"value":"26c419ce-a137-417b-90ef-8da89cacc8e3"}},"referral":{"reference":"#1"},"resourceType":"ExplanationOfBenefit","status":"active","totalCost":{"code":"USD","system":"urn:iso:std:iso:4217","value":685.89},"type":{"coding":[{"code":"71","display":"Local carrier non-durable medical equipment, prosthetics, orthotics, and supplies (DMEPOS) claim","system":"https://bluebutton.cms.gov/resources/variables/nch_clm_type_cd"},{"code":"CARRIER","display":"EOB Type","system":"https://bluebutton.cms.gov/resources/codesystem/eob-type"},{"code":"professional","display":"Claim Type","system":"http://hl7.org/fhir/ex-claimtype"},{"code":"O","display":"Part B physician/supplier claim record (processed by local carriers; can include DMEPOS services)","system":"https://bluebutton.cms.gov/resources/variables/nch_near_line_rec_ident_cd"}]}}},{"resource":{"billablePeriod":{"end":"2013-08-01T08:12:23-04:00","start":"2012-08-01T08:12:23-04:00"},"careTeam":[{"provider":{"identifier":{"system":"http://hl7.org/fhir/sid/us-npi","value":"99999999"}},"role":{"coding":[{"code":"primary","display":"Primary Care Practitioner","system":"http://hl7.org/fhir/claimcareteamrole"}]},"sequence":1}],"claim":{"reference":"Claim/5a62127b-fa7e-43d8-bbbf-7b53620717b0"},"contained":[{"id":"1","intent":"order","recipient":[{"identifier":{"system":"http://hl7.org/fhir/sid/us-npi","value":"99999999"}}],"requester":{"agent":{"identifier":{"system":"http://hl7.org/fhir/sid/us-npi","value":"99999999"}}},"resourceType":"ReferralRequest","status":"completed","subject":{"reference":"Patient/0accf4d2-156a-425c-8400-33c073a0f661"}},{"id":"coverage","resourceType":"Coverage","type":{"text":"private"}}],"created":"2012-08-01T08:12:23-04:00","id":"1c6e80d0-40d1-4acf-8a6a-e40ccae3cfa1","identifier":[{"system":"https://bluebutton.cms.gov/resources/variables/clm_id","value":"5a62127b-fa7e-43d8-bbbf-7b53620717b0"},{"system":"https://bluebutton.cms.gov/resources/identifier/claim-group","value":"99999999999"}],"insurance":{"coverage":{"reference":"#coverage"}},"item":[{"category":{"coding":[{"code":"1","display":"Medical care","system":"https://bluebutton.cms.gov/resources/variables/line_cms_type_srvc_cd"}]},"encounter":[{"reference":"Encounter/9b02f78e-6222-4c2e-afa3-3182f4107b52"}],"locationCodeableConcept":{"coding":[{"code":"21","display":"Inpatient Hospital","system":"https://bluebutton.cms.gov/resources/variables/line_place_of_srvc_cd"}]},"sequence":1,"servicedPeriod":{"end":"2012-08-01T08:12:23-04:00","start":"2012-08-01T07:57:23-04:00"}}],"meta":{"lastUpdated":"2019-04-09T12:03:29.360071+00:00","versionId":"MTU1NDgxMTQwOTM2MDA3MTAwMA"},"organization":{"identifier":{"value":"057e5b30-6566-4cff-80cc-1e899ab80bae"}},"patient":{"reference":"Patient/0accf4d2-156a-425c-8400-33c073a0f661"},"payment":{"amount":{"code":"USD","system":"urn:iso:std:iso:4217","value":0}},"provider":{"identifier":{"value":"4e75658e-2496-4900-a2a4-e8aa600269ed"}},"referral":{"reference":"#1"},"resourceType":"ExplanationOfBenefit","status":"active","totalCost":{"code":"USD","system":"urn:iso:std:iso:4217","value":125},"type":{"coding":[{"code":"71","display":"Local carrier non-durable medical equipment, prosthetics, orthotics, and supplies (DMEPOS) claim","system":"https://bluebutton.cms.gov/resources/variables/nch_clm_type_cd"},{"code":"CARRIER","display":"EOB Type","system":"https://bluebutton.cms.gov/resources/codesystem/eob-type"},{"code":"professional","display":"Claim Type","system":"http://hl7.org/fhir/ex-claimtype"},{"code":"O","display":"Part B physician/supplier claim record (processed by local carriers; can include DMEPOS services)","system":"https://bluebutton.cms.gov/resources/variables/nch_near_line_rec_ident_cd"}]}}},{"resource":{"billablePeriod":{"end":"2010-04-29T08:57:23-04:00","start":"2009-04-29T08:57:23-04:00"},"careTeam":[{"provider":{"identifier":{"system":"http://hl7.org/fhir/sid/us-npi","value":"99999999"}},"role":{"coding":[{"code":"primary","display":"Primary Care Practitioner","system":"http://hl7.org/fhir/claimcareteamrole"}]},"sequence":1}],"claim":{"reference":"Claim/e7a1d33d-210a-4033-97b3-2505741aac9e"},"contained":[{"id":"1","intent":"order","recipient":[{"identifier":{"system":"http://hl7.org/fhir/sid/us-npi","value":"99999999"}}],"requester":{"agent":{"identifier":{"system":"http://hl7.org/fhir/sid/us-npi","value":"99999999"}}},"resourceType":"ReferralRequest","status":"completed","subject":{"reference":"Patient/0accf4d2-156a-425c-8400-33c073a0f661"}},{"id":"coverage","resourceType":"Coverage","type":{"text":"private"}}],"created":"2009-04-29T08:57:23-04:00","id":"1daeae9c-ad82-4218-9f02-9c7aef7cac8a","identifier":[{"system":"https://bluebutton.cms.gov/resources/variables/clm_id","value":"e7a1d33d-210a-4033-97b3-2505741aac9e"},{"system":"https://bluebutton.cms.gov/resources/identifier/claim-group","value":"99999999999"}],"insurance":{"coverage":{"reference":"#coverage"}},"item":[{"category":{"coding":[{"code":"1","display":"Medical care","system":"https://bluebutton.cms.gov/resources/variables/line_cms_type_srvc_cd"}]},"encounter":[{"reference":"Encounter/205187ac-f889-4688-9858-0db731e5d173"}],"locationCodeableConcept":{"coding":[{"code":"21","display":"Inpatient Hospital","system":"https://bluebutton.cms.gov/resources/variables/line_place_of_srvc_cd"}]},"sequence":1,"servicedPeriod":{"end":"2009-04-29T08:57:23-04:00","start":"2009-04-29T07:57:23-04:00"}}],"meta":{"lastUpdated":"2019-04-09T12:03:26.173464+00:00","versionId":"MTU1NDgxMTQwNjE3MzQ2NDAwMA"},"organization":{"identifier":{"value":"3c1a6594-2deb-4ff5-972a-a209361ec3eb"}},"patient":{"reference":"Patient/0accf4d2-156a-425c-8400-33c073a0f661"},"payment":{"amount":{"code":"USD","system":"urn:iso:std:iso:4217","value":0}},"provider":{"identifier":{"value":"26c419ce-a137-417b-90ef-8da89cacc8e3"}},"referral":{"reference":"#1"},"resourceType":"ExplanationOfBenefit","status":"active","totalCost":{"code":"USD","system":"urn:iso:std:iso:4217","value":125},"type":{"coding":[{"code":"71","display":"Local carrier non-durable medical equipment, prosthetics, orthotics, and supplies (DMEPOS) claim","system":"https://bluebutton.cms.gov/resources/variables/nch_clm_type_cd"},{"code":"CARRIER","display":"EOB Type","system":"https://bluebutton.cms.gov/resources/codesystem/eob-type"},{"code":"professional","display":"Claim Type","system":"http://hl7.org/fhir/ex-claimtype"},{"code":"O","display":"Part B physician/supplier claim record (processed by local carriers; can include DMEPOS services)","system":"https://bluebutton.cms.gov/resources/variables/nch_near_line_rec_ident_cd"}]}}},{"resource":{"billablePeriod":{"end":"2015-02-26T07:12:23-05:00","start":"2014-02-26T07:12:23-05:00"},"careTeam":[{"provider":{"identifier":{"system":"http://hl7.org/fhir/sid/us-npi","value":"99999999"}},"role":{"coding":[{"code":"primary","display":"Primary Care Practitioner","system":"http://hl7.org/fhir/claimcareteamrole"}]},"sequence":1}],"claim":{"reference":"Claim/3331ec02-4cc9-4b2c-90a2-a0953e97cfe6"},"contained":[{"id":"1","intent":"order","recipient":[{"identifier":{"system":"http://hl7.org/fhir/sid/us-npi","value":"99999999"}}],"requester":{"agent":{"identifier":{"system":"http://hl7.org/fhir/sid/us-npi","value":"99999999"}}},"resourceType":"ReferralRequest","status":"completed","subject":{"reference":"Patient/0accf4d2-156a-425c-8400-33c073a0f661"}},{"id":"coverage","resourceType":"Coverage","type":{"text":"private"}}],"created":"2014-02-26T07:12:23-05:00","id":"1f0f3030-2706-4da4-b25d-811750229a8e","identifier":[{"system":"https://bluebutton.cms.gov/resources/variables/clm_id","value":"3331ec02-4cc9-4b2c-90a2-a0953e97cfe6"},{"system":"https://bluebutton.cms.gov/resources/identifier/claim-group","value":"99999999999"}],"insurance":{"coverage":{"reference":"#coverage"}},"item":[{"category":{"coding":[{"code":"1","display":"Medical care","system":"https://bluebutton.cms.gov/resources/variables/line_cms_type_srvc_cd"}]},"encounter":[{"reference":"Encounter/e83cbaff-a357-4055-9e3f-019b8e5b4a93"}],"locationCodeableConcept":{"coding":[{"code":"21","display":"Inpatient Hospital","system":"https://bluebutton.cms.gov/resources/variables/line_place_of_srvc_cd"}]},"sequence":1,"servicedPeriod":{"end":"2014-02-26T07:12:23-05:00","start":"2014-02-26T06:57:23-05:00"}}],"meta":{"lastUpdated":"2019-04-09T12:03:31.368900+00:00","versionId":"MTU1NDgxMTQxMTM2ODkwMDAwMA"},"organization":{"identifier":{"value":"057e5b30-6566-4cff-80cc-1e899ab80bae"}},"patient":{"reference":"Patient/0accf4d2-156a-425c-8400-33c073a0f661"},"payment":{"amount":{"code":"USD","system":"urn:iso:std:iso:4217","value":0}},"provider":{"identifier":{"value":"4e75658e-2496-4900-a2a4-e8aa600269ed"}},"referral":{"reference":"#1"},"resourceType":"ExplanationOfBenefit","status":"active","totalCost":{"code":"USD","system":"urn:iso:std:iso:4217","value":125},"type":{"coding":[{"code":"71","display":"Local carrier non-durable medical equipment, prosthetics, orthotics, and supplies (DMEPOS) claim","system":"https://bluebutton.cms.gov/resources/variables/nch_clm_type_cd"},{"code":"CARRIER","display":"EOB Type","system":"https://bluebutton.cms.gov/resources/codesystem/eob-type"},{"code":"professional","display":"Claim Type","system":"http://hl7.org/fhir/ex-claimtype"},{"code":"O","display":"Part B physician/supplier claim record (processed by local carriers; can include DMEPOS services)","system":"https://bluebutton.cms.gov/resources/variables/nch_near_line_rec_ident_cd"}]}}},{"resource":{"billablePeriod":{"end":"2017-04-13T08:12:23-04:00","start":"2016-04-13T08:12:23-04:00"},"careTeam":[{"provider":{"identifier":{"system":"http://hl7.org/fhir/sid/us-npi","value":"99999999"}},"role":{"coding":[{"code":"primary","display":"Primary Care Practitioner","system":"http://hl7.org/fhir/claimcareteamrole"}]},"sequence":1}],"claim":{"reference":"Claim/20e63774-8edf-44a5-bfc7-96ad8bbc56fa"},"contained":[{"id":"1","intent":"order","recipient":[{"identifier":{"system":"http://hl7.org/fhir/sid/us-npi","value":"99999999"}}],"requester":{"agent":{"identifier":{"system":"http://hl7.org/fhir/sid/us-npi","value":"99999999"}}},"resourceType":"ReferralRequest","status":"completed","subject":{"reference":"Patient/0accf4d2-156a-425c-8400-33c073a0f661"}},{"id":"coverage","resourceType":"Coverage","type":{"text":"private"}}],"created":"2016-04-13T08:12:23-04:00","id":"1f8f8185-55f9-447b-a54e-b04c109c1315","identifier":[{"system":"https://bluebutton.cms.gov/resources/variables/clm_id","value":"20e63774-8edf-44a5-bfc7-96ad8bbc56fa"},{"system":"https://bluebutton.cms.gov/resources/identifier/claim-group","value":"99999999999"}],"insurance":{"coverage":{"reference":"#coverage"}},"item":[{"category":{"coding":[{"code":"1","display":"Medical care","system":"https://bluebutton.cms.gov/resources/variables/line_cms_type_srvc_cd"}]},"encounter":[{"reference":"Encounter/262333f2-ba91-4a3a-ad71-f6798a42a25d"}],"locationCodeableConcept":{"coding":[{"code":"21","display":"Inpatient Hospital","system":"https://bluebutton.cms.gov/resources/variables/line_place_of_srvc_cd"}]},"sequence":1,"servicedPeriod":{"end":"2016-04-13T08:12:23-04:00","start":"2016-04-13T07:57:23-04:00"}}],"meta":{"lastUpdated":"2019-04-09T12:03:34.448950+00:00","versionId":"MTU1NDgxMTQxNDQ0ODk1MDAwMA"},"organization":{"identifier":{"value":"3c1a6594-2deb-4ff5-972a-a209361ec3eb"}},"patient":{"reference":"Patient/0accf4d2-156a-425c-8400-33c073a0f661"},"payment":{"amount":{"code":"USD","system":"urn:iso:std:iso:4217","value":0}},"provider":{"identifier":{"value":"26c419ce-a137-417b-90ef-8da89cacc8e3"}},"referral":{"reference":"#1"},"resourceType":"ExplanationOfBenefit","status":"active","totalCost":{"code":"USD","system":"urn:iso:std:iso:4217","value":125},"type":{"coding":[{"code":"71","display":"Local carrier non-durable medical equipment, prosthetics, orthotics, and supplies (DMEPOS) claim","system":"https://bluebutton.cms.gov/resources/variables/nch_clm_type_cd"},{"code":"CARRIER","display":"EOB Type","system":"https://bluebutton.cms.gov/resources/codesystem/eob-type"},{"code":"professional","display":"Claim Type","system":"http://hl7.org/fhir/ex-claimtype"},{"code":"O","display":"Part B physician/supplier claim record (processed by local carriers; can include DMEPOS services)","system":"https://bluebutton.cms.gov/resources/variables/nch_near_line_rec_ident_cd"}]}}},{"resource":{"billablePeriod":{"end":"2011-06-16T08:12:23-04:00","start":"2010-06-16T08:12:23-04:00"},"careTeam":[{"provider":{"identifier":{"system":"http://hl7.org/fhir/sid/us-npi","value":"99999999"}},"role":{"coding":[{"code":"primary","display":"Primary Care Practitioner","system":"http://hl7.org/fhir/claimcareteamrole"}]},"sequence":1}],"claim":{"reference":"Claim/0ba40af6-88fe-4900-b0df-fb0c5cc7caed"},"contained":[{"id":"1","intent":"order","recipient":[{"identifier":{"system":"http://hl7.org/fhir/sid/us-npi","value":"99999999"}}],"requester":{"agent":{"identifier":{"system":"http://hl7.org/fhir/sid/us-npi","value":"99999999"}}},"resourceType":"ReferralRequest","status":"completed","subject":{"reference":"Patient/0accf4d2-156a-425c-8400-33c073a0f661"}},{"id":"coverage","resourceType":"Coverage","type":{"text":"private"}}],"created":"2010-06-16T08:12:23-04:00","id":"22474b04-2aeb-4b40-9f1c-005fb34183eb","identifier":[{"system":"https://bluebutton.cms.gov/resources/variables/clm_id","value":"0ba40af6-88fe-4900-b0df-fb0c5cc7caed"},{"system":"https://bluebutton.cms.gov/resources/identifier/claim-group","value":"99999999999"}],"insurance":{"coverage":{"reference":"#coverage"}},"item":[{"category":{"coding":[{"code":"1","display":"Medical care","system":"https://bluebutton.cms.gov/resources/variables/line_cms_type_srvc_cd"}]},"encounter":[{"reference":"Encounter/1c8c4a89-fb15-4e80-b747-969c97699089"}],"locationCodeableConcept":{"coding":[{"code":"21","display":"Inpatient Hospital","system":"https://bluebutton.cms.gov/resources/variables/line_place_of_srvc_cd"}]},"sequence":1,"servicedPeriod":{"end":"2010-06-16T08:12:23-04:00","start":"2010-06-16T07:57:23-04:00"}}],"meta":{"lastUpdated":"2019-04-09T12:03:27.228546+00:00","versionId":"MTU1NDgxMTQwNzIyODU0NjAwMA"},"organization":{"identifier":{"value":"057e5b30-6566-4cff-80cc-1e899ab80bae"}},"patient":{"reference":"Patient/0accf4d2-156a-425c-8400-33c073a0f661"},"payment":{"amount":{"code":"USD","system":"urn:iso:std:iso:4217","value":0}},"provider":{"identifier":{"value":"4e75658e-2496-4900-a2a4-e8aa600269ed"}},"referral":{"reference":"#1"},"resourceType":"ExplanationOfBenefit","status":"active","totalCost":{"code":"USD","system":"urn:iso:std:iso:4217","value":125},"type":{"coding":[{"code":"71","display":"Local carrier non-durable medical equipment, prosthetics, orthotics, and supplies (DMEPOS) claim","system":"https://bluebutton.cms.gov/resources/variables/nch_clm_type_cd"},{"code":"CARRIER","display":"EOB Type","system":"https://bluebutton.cms.gov/resources/codesystem/eob-type"},{"code":"professional","display":"Claim Type","system":"http://hl7.org/fhir/ex-claimtype"},{"code":"O","display":"Part B physician/supplier claim record (processed by local carriers; can include DMEPOS services)","system":"https://bluebutton.cms.gov/resources/variables/nch_near_line_rec_ident_cd"}]}}},{"resource":{"billablePeriod":{"end":"2017-07-13T08:12:23-04:00","start":"2016-07-13T08:12:23-04:00"},"careTeam":[{"provider":{"identifier":{"system":"http://hl7.org/fhir/sid/us-npi","value":"99999999"}},"role":{"coding":[{"code":"primary","display":"Primary Care Practitioner","system":"http://hl7.org/fhir/claimcareteamrole"}]},"sequence":1}],"claim":{"reference":"Claim/dd204235-f9b6-4db3-87fa-f198d9936906"},"contained":[{"id":"1","intent":"order","recipient":[{"identifier":{"system":"http://hl7.org/fhir/sid/us-npi","value":"99999999"}}],"requester":{"agent":{"identifier":{"system":"http://hl7.org/fhir/sid/us-npi","value":"99999999"}}},"resourceType":"ReferralRequest","status":"completed","subject":{"reference":"Patient/0accf4d2-156a-425c-8400-33c073a0f661"}},{"id":"coverage","resourceType":"Coverage","type":{"text":"private"}}],"created":"2016-07-13T08:12:23-04:00","id":"22d65206-36d5-4536-a6ad-3eed27a960f9","identifier":[{"system":"https://bluebutton.cms.gov/resources/variables/clm_id","value":"dd204235-f9b6-4db3-87fa-f198d9936906"},{"system":"https://bluebutton.cms.gov/resources/identifier/claim-group","value":"99999999999"}],"insurance":{"coverage":{"reference":"#coverage"}},"item":[{"category":{"coding":[{"code":"1","display":"Medical care","system":"https://bluebutton.cms.gov/resources/variables/line_cms_type_srvc_cd"}]},"encounter":[{"reference":"Encounter/4afa4653-a6ff-420c-aa00-d4c597709cb1"}],"locationCodeableConcept":{"coding":[{"code":"21","display":"Inpatient Hospital","system":"https://bluebutton.cms.gov/resources/variables/line_place_of_srvc_cd"}]},"sequence":1,"servicedPeriod":{"end":"2016-07-13T08:12:23-04:00","start":"2016-07-13T07:57:23-04:00"}}],"meta":{"lastUpdated":"2019-04-09T12:03:34.450433+00:00","versionId":"MTU1NDgxMTQxNDQ1MDQzMzAwMA"},"organization":{"identifier":{"value":"057e5b30-6566-4cff-80cc-1e899ab80bae"}},"patient":{"reference":"Patient/0accf4d2-156a-425c-8400-33c073a0f661"},"payment":{"amount":{"code":"USD","system":"urn:iso:std:iso:4217","value":0}},"provider":{"identifier":{"value":"4e75658e-2496-4900-a2a4-e8aa600269ed"}},"referral":{"reference":"#1"},"resourceType":"ExplanationOfBenefit","status":"active","totalCost":{"code":"USD","system":"urn:iso:std:iso:4217","value":125},"type":{"coding":[{"code":"71","display":"Local carrier non-durable medical equipment, prosthetics, orthotics, and supplies (DMEPOS) claim","system":"https://bluebutton.cms.gov/resources/variables/nch_clm_type_cd"},{"code":"CARRIER","display":"EOB Type","system":"https://bluebutton.cms.gov/resources/codesystem/eob-type"},{"code":"professional","display":"Claim Type","system":"http://hl7.org/fhir/ex-claimtype"},{"code":"O","display":"Part B physician/supplier claim record (processed by local carriers; can include DMEPOS services)","system":"https://bluebutton.cms.gov/resources/variables/nch_near_line_rec_ident_cd"}]}}},{"resource":{"billablePeriod":{"end":"2019-05-30T08:12:23-04:00","start":"2018-05-30T08:12:23-04:00"},"careTeam":[{"provider":{"identifier":{"system":"http://hl7.org/fhir/sid/us-npi","value":"99999999"}},"role":{"coding":[{"code":"primary","display":"Primary Care Practitioner","system":"http://hl7.org/fhir/claimcareteamrole"}]},"sequence":1}],"claim":{"reference":"Claim/3a065021-bd59-4abf-ad88-b81e33b66831"},"contained":[{"id":"1","intent":"order","recipient":[{"identifier":{"system":"http://hl7.org/fhir/sid/us-npi","value":"99999999"}}],"requester":{"agent":{"identifier":{"system":"http://hl7.org/fhir/sid/us-npi","value":"99999999"}}},"resourceType":"ReferralRequest","status":"completed","subject":{"reference":"Patient/0accf4d2-156a-425c-8400-33c073a0f661"}},{"id":"coverage","resourceType":"Coverage","type":{"text":"private"}}],"created":"2018-05-30T08:12:23-04:00","id":"22e3baad-9575-486b-a420-8a2c380a88a4","identifier":[{"system":"https://bluebutton.cms.gov/resources/variables/clm_id","value":"3a065021-bd59-4abf-ad88-b81e33b66831"},{"system":"https://bluebutton.cms.gov/resources/identifier/claim-group","value":"99999999999"}],"insurance":{"coverage":{"reference":"#coverage"}},"item":[{"category":{"coding":[{"code":"1","display":"Medical care","system":"https://bluebutton.cms.gov/resources/variables/line_cms_type_srvc_cd"}]},"encounter":[{"reference":"Encounter/862df6b3-760d-440b-94bf-820fd61e5804"}],"locationCodeableConcept":{"coding":[{"code":"21","display":"Inpatient Hospital","system":"https://bluebutton.cms.gov/resources/variables/line_place_of_srvc_cd"}]},"sequence":1,"servicedPeriod":{"end":"2018-05-30T08:12:23-04:00","start":"2018-05-30T07:57:23-04:00"}}],"meta":{"lastUpdated":"2019-04-09T12:03:36.518349+00:00","versionId":"MTU1NDgxMTQxNjUxODM0OTAwMA"},"organization":{"identifier":{"value":"057e5b30-6566-4cff-80cc-1e899ab80bae"}},"patient":{"reference":"Patient/0accf4d2-156a-425c-8400-33c073a0f661"},"payment":{"amount":{"code":"USD","system":"urn:iso:std:iso:4217","value":0}},"provider":{"identifier":{"value":"4e75658e-2496-4900-a2a4-e8aa600269ed"}},"referral":{"reference":"#1"},"resourceType":"ExplanationOfBenefit","status":"active","totalCost":{"code":"USD","system":"urn:iso:std:iso:4217","value":125},"type":{"coding":[{"code":"71","display":"Local carrier non-durable medical equipment, prosthetics, orthotics, and supplies (DMEPOS) claim","system":"https://bluebutton.cms.gov/resources/variables/nch_clm_type_cd"},{"code":"CARRIER","display":"EOB Type","system":"https://bluebutton.cms.gov/resources/codesystem/eob-type"},{"code":"professional","display":"Claim Type","system":"http://hl7.org/fhir/ex-claimtype"},{"code":"O","display":"Part B physician/supplier claim record (processed by local carriers; can include DMEPOS services)","system":"https://bluebutton.cms.gov/resources/variables/nch_near_line_rec_ident_cd"}]}}},{"resource":{"billablePeriod":{"end":"2012-01-12T07:27:23-05:00","start":"2011-01-12T07:27:23-05:00"},"careTeam":[{"provider":{"identifier":{"system":"http://hl7.org/fhir/sid/us-npi","value":"99999999"}},"role":{"coding":[{"code":"primary","display":"Primary Care Practitioner","system":"http://hl7.org/fhir/claimcareteamrole"}]},"sequence":1}],"claim":{"reference":"Claim/ce54de96-032b-4375-a2dd-f3d1ff609e5f"},"contained":[{"id":"1","intent":"order","recipient":[{"identifier":{"system":"http://hl7.org/fhir/sid/us-npi","value":"99999999"}}],"requester":{"agent":{"identifier":{"system":"http://hl7.org/fhir/sid/us-npi","value":"99999999"}}},"resourceType":"ReferralRequest","status":"completed","subject":{"reference":"Patient/0accf4d2-156a-425c-8400-33c073a0f661"}},{"id":"coverage","resourceType":"Coverage","type":{"text":"private"}}],"created":"2011-01-12T07:27:23-05:00","id":"230ba050-8bbe-401d-bd47-a25dae0ccb4d","identifier":[{"system":"https://bluebutton.cms.gov/resources/variables/clm_id","value":"ce54de96-032b-4375-a2dd-f3d1ff609e5f"},{"system":"https://bluebutton.cms.gov/resources/identifier/claim-group","value":"99999999999"}],"insurance":{"coverage":{"reference":"#coverage"}},"item":[{"category":{"coding":[{"code":"1","display":"Medical care","system":"https://bluebutton.cms.gov/resources/variables/line_cms_type_srvc_cd"}]},"encounter":[{"reference":"Encounter/c0d2a28c-a94a-4079-98f9-d64d5827a2da"}],"locationCodeableConcept":{"coding":[{"code":"21","display":"Inpatient Hospital","system":"https://bluebutton.cms.gov/resources/variables/line_place_of_srvc_cd"}]},"sequence":1,"servicedPeriod":{"end":"2011-01-12T07:27:23-05:00","start":"2011-01-12T06:57:23-05:00"}},{"adjudication":[{"amount":{"code":"USD","system":"urn:iso:std:iso:4217","value":77.44400000000002},"category":{"coding":[{"code":"https://bluebutton.cms.gov/resources/variables/line_coinsrnc_amt","display":"Line Beneficiary Coinsurance Amount","system":"https://bluebutton.cms.gov/resources/codesystem/adjudication"}]}},{"amount":{"code":"USD","system":"urn:iso:std:iso:4217","value":309.77600000000007},"category":{"coding":[{"code":"https://bluebutton.cms.gov/resources/variables/line_prvdr_pmt_amt","display":"Line Provider Payment Amount","system":"https://bluebutton.cms.gov/resources/codesystem/adjudication"}]}},{"amount":{"code":"USD","system":"urn:iso:std:iso:4217","value":387.22},"category":{"coding":[{"code":"https://bluebutton.cms.gov/resources/variables/line_sbmtd_chrg_amt","display":"Line Submitted Charge Amount","system":"https://bluebutton.cms.gov/resources/codesystem/adjudication"}]}},{"amount":{"code":"USD","system":"urn:iso:std:iso:4217","value":387.22},"category":{"coding":[{"code":"https://bluebutton.cms.gov/resources/variables/line_alowd_chrg_amt","display":"Line Allowed Charge Amount","system":"https://bluebutton.cms.gov/resources/codesystem/adjudication"}]}},{"amount":{"code":"USD","system":"urn:iso:std:iso:4217","value":0},"category":{"coding":[{"code":"https://bluebutton.cms.gov/resources/variables/line_bene_ptb_ddctbl_amt","display":"Line Beneficiary Part B Deductible Amount","system":"https://bluebutton.cms.gov/resources/codesystem/adjudication"}]}},{"category":{"coding":[{"code":"https://bluebutton.cms.gov/resources/variables/line_prcsg_ind_cd","display":"Line Processing Indicator Code","system":"https://bluebutton.cms.gov/resources/codesystem/adjudication"}]},"reason":{"coding":[{"code":"A","display":"Allowed","system":"https://bluebutton.cms.gov/resources/variables/line_prcsg_ind_cd"}]}}],"category":{"coding":[{"code":"1","display":"Medical care","system":"https://bluebutton.cms.gov/resources/variables/line_cms_type_srvc_cd"}]},"locationCodeableConcept":{"coding":[{"code":"21","display":"Inpatient Hospital","system":"https://bluebutton.cms.gov/resources/variables/line_place_of_srvc_cd"}]},"net":{"code":"USD","system":"urn:iso:std:iso:4217","value":387.22},"sequence":2,"service":{"coding":[{"code":"428191000124101","system":"http://snomed.info/sct","version":"v1"}]},"servicedPeriod":{"end":"2011-01-12T07:27:23-05:00","start":"2011-01-12T06:57:23-05:00"}}],"meta":{"lastUpdated":"2019-04-09T12:03:27.263518+00:00","versionId":"MTU1NDgxMTQwNzI2MzUxODAwMA"},"organization":{"identifier":{"value":"3c1a6594-2deb-4ff5-972a-a209361ec3eb"}},"patient":{"reference":"Patient/0accf4d2-156a-425c-8400-33c073a0f661"},"payment":{"amount":{"code":"USD","system":"urn:iso:std:iso:4217","value":309.77600000000007}},"provider":{"identifier":{"value":"26c419ce-a137-417b-90ef-8da89cacc8e3"}},"referral":{"reference":"#1"},"resourceType":"ExplanationOfBenefit","status":"active","totalCost":{"code":"USD","system":"urn:iso:std:iso:4217","value":512.22},"type":{"coding":[{"code":"71","display":"Local carrier non-durable medical equipment, prosthetics, orthotics, and supplies (DMEPOS) claim","system":"https://bluebutton.cms.gov/resources/variables/nch_clm_type_cd"},{"code":"CARRIER","display":"EOB Type","system":"https://bluebutton.cms.gov/resources/codesystem/eob-type"},{"code":"professional","display":"Claim Type","system":"http://hl7.org/fhir/ex-claimtype"},{"code":"O","display":"Part B physician/supplier claim record (processed by local carriers; can include DMEPOS services)","system":"https://bluebutton.cms.gov/resources/variables/nch_near_line_rec_ident_cd"}]}}},{"resource":{"billablePeriod":{"end":"2015-10-22T08:12:23-04:00","start":"2014-10-22T08:12:23-04:00"},"careTeam":[{"provider":{"identifier":{"system":"http://hl7.org/fhir/sid/us-npi","value":"99999999"}},"role":{"coding":[{"code":"primary","display":"Primary Care Practitioner","system":"http://hl7.org/fhir/claimcareteamrole"}]},"sequence":1}],"claim":{"reference":"Claim/2ad997e9-6c6b-4459-90f4-7d3faa5428af"},"contained":[{"id":"1","intent":"order","recipient":[{"identifier":{"system":"http://hl7.org/fhir/sid/us-npi","value":"99999999"}}],"requester":{"agent":{"identifier":{"system":"http://hl7.org/fhir/sid/us-npi","value":"99999999"}}},"resourceType":"ReferralRequest","status":"completed","subject":{"reference":"Patient/0accf4d2-156a-425c-8400-33c073a0f661"}},{"id":"coverage","resourceType":"Coverage","type":{"text":"private"}}],"created":"2014-10-22T08:12:23-04:00","id":"233b29a6-d478-44de-9ba6-5dc646f7dec8","identifier":[{"system":"https://bluebutton.cms.gov/resources/variables/clm_id","value":"2ad997e9-6c6b-4459-90f4-7d3faa5428af"},{"system":"https://bluebutton.cms.gov/resources/identifier/claim-group","value":"99999999999"}],"insurance":{"coverage":{"reference":"#coverage"}},"item":[{"category":{"coding":[{"code":"1","display":"Medical care","system":"https://bluebutton.cms.gov/resources/variables/line_cms_type_srvc_cd"}]},"encounter":[{"reference":"Encounter/d5c6f699-edd0-4665-9557-dbd9ea90ff5b"}],"locationCodeableConcept":{"coding":[{"code":"21","display":"Inpatient Hospital","system":"https://bluebutton.cms.gov/resources/variables/line_place_of_srvc_cd"}]},"sequence":1,"servicedPeriod":{"end":"2014-10-22T08:12:23-04:00","start":"2014-10-22T07:57:23-04:00"}}],"meta":{"lastUpdated":"2019-04-09T12:03:32.374741+00:00","versionId":"MTU1NDgxMTQxMjM3NDc0MTAwMA"},"organization":{"identifier":{"value":"057e5b30-6566-4cff-80cc-1e899ab80bae"}},"patient":{"reference":"Patient/0accf4d2-156a-425c-8400-33c073a0f661"},"payment":{"amount":{"code":"USD","system":"urn:iso:std:iso:4217","value":0}},"provider":{"identifier":{"value":"4e75658e-2496-4900-a2a4-e8aa600269ed"}},"referral":{"reference":"#1"},"resourceType":"ExplanationOfBenefit","status":"active","totalCost":{"code":"USD","system":"urn:iso:std:iso:4217","value":125},"type":{"coding":[{"code":"71","display":"Local carrier non-durable medical equipment, prosthetics, orthotics, and supplies (DMEPOS) claim","system":"https://bluebutton.cms.gov/resources/variables/nch_clm_type_cd"},{"code":"CARRIER","display":"EOB Type","system":"https://bluebutton.cms.gov/resources/codesystem/eob-type"},{"code":"professional","display":"Claim Type","system":"http://hl7.org/fhir/ex-claimtype"},{"code":"O","display":"Part B physician/supplier claim record (processed by local carriers; can include DMEPOS services)","system":"https://bluebutton.cms.gov/resources/variables/nch_near_line_rec_ident_cd"}]}}},{"resource":{"billablePeriod":{"end":"2019-10-31T08:12:23-04:00","start":"2018-10-31T08:12:23-04:00"},"careTeam":[{"provider":{"identifier":{"system":"http://hl7.org/fhir/sid/us-npi","value":"99999999"}},"role":{"coding":[{"code":"primary","display":"Primary Care Practitioner","system":"http://hl7.org/fhir/claimcareteamrole"}]},"sequence":1}],"claim":{"reference":"Claim/0d4bc9dc-ef87-45d0-a6b8-95891d177006"},"contained":[{"id":"1","intent":"order","recipient":[{"identifier":{"system":"http://hl7.org/fhir/sid/us-npi","value":"99999999"}}],"requester":{"agent":{"identifier":{"system":"http://hl7.org/fhir/sid/us-npi","value":"99999999"}}},"resourceType":"ReferralRequest","status":"completed","subject":{"reference":"Patient/0accf4d2-156a-425c-8400-33c073a0f661"}},{"id":"coverage","resourceType":"Coverage","type":{"text":"private"}}],"created":"2018-10-31T08:12:23-04:00","id":"23bd8d1d-bac9-4a05-b571-34631f7fadb0","identifier":[{"system":"https://bluebutton.cms.gov/resources/variables/clm_id","value":"0d4bc9dc-ef87-45d0-a6b8-95891d177006"},{"system":"https://bluebutton.cms.gov/resources/identifier/claim-group","value":"99999999999"}],"insurance":{"coverage":{"reference":"#coverage"}},"item":[{"category":{"coding":[{"code":"1","display":"Medical care","system":"https://bluebutton.cms.gov/resources/variables/line_cms_type_srvc_cd"}]},"encounter":[{"reference":"Encounter/53887957-5e9f-4852-9766-f2e386af0c99"}],"locationCodeableConcept":{"coding":[{"code":"21","display":"Inpatient Hospital","system":"https://bluebutton.cms.gov/resources/variables/line_place_of_srvc_cd"}]},"sequence":1,"servicedPeriod":{"end":"2018-10-31T08:12:23-04:00","start":"2018-10-31T07:57:23-04:00"}}],"meta":{"lastUpdated":"2019-04-09T12:03:37.505756+00:00","versionId":"MTU1NDgxMTQxNzUwNTc1NjAwMA"},"organization":{"identifier":{"value":"057e5b30-6566-4cff-80cc-1e899ab80bae"}},"patient":{"reference":"Patient/0accf4d2-156a-425c-8400-33c073a0f661"},"payment":{"amount":{"code":"USD","system":"urn:iso:std:iso:4217","value":0}},"provider":{"identifier":{"value":"4e75658e-2496-4900-a2a4-e8aa600269ed"}},"referral":{"reference":"#1"},"resourceType":"ExplanationOfBenefit","status":"active","totalCost":{"code":"USD","system":"urn:iso:std:iso:4217","value":125},"type":{"coding":[{"code":"71","display":"Local carrier non-durable medical equipment, prosthetics, orthotics, and supplies (DMEPOS) claim","system":"https://bluebutton.cms.gov/resources/variables/nch_clm_type_cd"},{"code":"CARRIER","display":"EOB Type","system":"https://bluebutton.cms.gov/resources/codesystem/eob-type"},{"code":"professional","display":"Claim Type","system":"http://hl7.org/fhir/ex-claimtype"},{"code":"O","display":"Part B physician/supplier claim record (processed by local carriers; can include DMEPOS services)","system":"https://bluebutton.cms.gov/resources/variables/nch_near_line_rec_ident_cd"}]}}},{"resource":{"billablePeriod":{"end":"2012-08-10T08:12:23-04:00","start":"2011-08-10T08:12:23-04:00"},"careTeam":[{"provider":{"identifier":{"system":"http://hl7.org/fhir/sid/us-npi","value":"99999999"}},"role":{"coding":[{"code":"primary","display":"Primary Care Practitioner","system":"http://hl7.org/fhir/claimcareteamrole"}]},"sequence":1}],"claim":{"reference":"Claim/cf2e01dc-fad1-4b6a-883d-150b2daa52b9"},"contained":[{"id":"1","intent":"order","recipient":[{"identifier":{"system":"http://hl7.org/fhir/sid/us-npi","value":"99999999"}}],"requester":{"agent":{"identifier":{"system":"http://hl7.org/fhir/sid/us-npi","value":"99999999"}}},"resourceType":"ReferralRequest","status":"completed","subject":{"reference":"Patient/0accf4d2-156a-425c-8400-33c073a0f661"}},{"id":"coverage","resourceType":"Coverage","type":{"text":"private"}}],"created":"2011-08-10T08:12:23-04:00","id":"253659cb-a749-4641-84c3-1c8310cb72c9","identifier":[{"system":"https://bluebutton.cms.gov/resources/variables/clm_id","value":"cf2e01dc-fad1-4b6a-883d-150b2daa52b9"},{"system":"https://bluebutton.cms.gov/resources/identifier/claim-group","value":"99999999999"}],"insurance":{"coverage":{"reference":"#coverage"}},"item":[{"category":{"coding":[{"code":"1","display":"Medical care","system":"https://bluebutton.cms.gov/resources/variables/line_cms_type_srvc_cd"}]},"encounter":[{"reference":"Encounter/d09e5906-2490-46cb-8dcd-034abc113b68"}],"locationCodeableConcept":{"coding":[{"code":"21","display":"Inpatient Hospital","system":"https://bluebutton.cms.gov/resources/variables/line_place_of_srvc_cd"}]},"sequence":1,"servicedPeriod":{"end":"2011-08-10T08:12:23-04:00","start":"2011-08-10T07:57:23-04:00"}}],"meta":{"lastUpdated":"2019-04-09T12:03:28.277050+00:00","versionId":"MTU1NDgxMTQwODI3NzA1MDAwMA"},"organization":{"identifier":{"value":"057e5b30-6566-4cff-80cc-1e899ab80bae"}},"patient":{"reference":"Patient/0accf4d2-156a-425c-8400-33c073a0f661"},"payment":{"amount":{"code":"USD","system":"urn:iso:std:iso:4217","value":0}},"provider":{"identifier":{"value":"4e75658e-2496-4900-a2a4-e8aa600269ed"}},"referral":{"reference":"#1"},"resourceType":"ExplanationOfBenefit","status":"active","totalCost":{"code":"USD","system":"urn:iso:std:iso:4217","value":125},"type":{"coding":[{"code":"71","display":"Local carrier non-durable medical equipment, prosthetics, orthotics, and supplies (DMEPOS) claim","system":"https://bluebutton.cms.gov/resources/variables/nch_clm_type_cd"},{"code":"CARRIER","display":"EOB Type","system":"https://bluebutton.cms.gov/resources/codesystem/eob-type"},{"code":"professional","display":"Claim Type","system":"http://hl7.org/fhir/ex-claimtype"},{"code":"O","display":"Part B physician/supplier claim record (processed by local carriers; can include DMEPOS services)","system":"https://bluebutton.cms.gov/resources/variables/nch_near_line_rec_ident_cd"}]}}},{"resource":{"billablePeriod":{"end":"2017-12-07T07:27:23-05:00","start":"2016-12-07T07:27:23-05:00"},"careTeam":[{"provider":{"identifier":{"system":"http://hl7.org/fhir/sid/us-npi","value":"99999999"}},"role":{"coding":[{"code":"primary","display":"Primary Care Practitioner","system":"http://hl7.org/fhir/claimcareteamrole"}]},"sequence":1}],"claim":{"reference":"Claim/a42f7219-971c-4807-8138-d913874f8207"},"contained":[{"id":"1","intent":"order","recipient":[{"identifier":{"system":"http://hl7.org/fhir/sid/us-npi","value":"99999999"}}],"requester":{"agent":{"identifier":{"system":"http://hl7.org/fhir/sid/us-npi","value":"99999999"}}},"resourceType":"ReferralRequest","status":"completed","subject":{"reference":"Patient/0accf4d2-156a-425c-8400-33c073a0f661"}},{"id":"coverage","resourceType":"Coverage","type":{"text":"private"}}],"created":"2016-12-07T07:27:23-05:00","id":"258a1bf1-968a-40d5-b6f8-aef95e414bca","identifier":[{"system":"https://bluebutton.cms.gov/resources/variables/clm_id","value":"a42f7219-971c-4807-8138-d913874f8207"},{"system":"https://bluebutton.cms.gov/resources/identifier/claim-group","value":"99999999999"}],"insurance":{"coverage":{"reference":"#coverage"}},"item":[{"category":{"coding":[{"code":"1","display":"Medical care","system":"https://bluebutton.cms.gov/resources/variables/line_cms_type_srvc_cd"}]},"encounter":[{"reference":"Encounter/6ef8598d-dcc2-4fed-8d35-f406fda5cd57"}],"locationCodeableConcept":{"coding":[{"code":"21","display":"Inpatient Hospital","system":"https://bluebutton.cms.gov/resources/variables/line_place_of_srvc_cd"}]},"sequence":1,"servicedPeriod":{"end":"2016-12-07T07:27:23-05:00","start":"2016-12-07T06:57:23-05:00"}},{"adjudication":[{"amount":{"code":"USD","system":"urn:iso:std:iso:4217","value":28.104000000000003},"category":{"coding":[{"code":"https://bluebutton.cms.gov/resources/variables/line_coinsrnc_amt","display":"Line Beneficiary Coinsurance Amount","system":"https://bluebutton.cms.gov/resources/codesystem/adjudication"}]}},{"amount":{"code":"USD","system":"urn:iso:std:iso:4217","value":112.41600000000001},"category":{"coding":[{"code":"https://bluebutton.cms.gov/resources/variables/line_prvdr_pmt_amt","display":"Line Provider Payment Amount","system":"https://bluebutton.cms.gov/resources/codesystem/adjudication"}]}},{"amount":{"code":"USD","system":"urn:iso:std:iso:4217","value":140.52},"category":{"coding":[{"code":"https://bluebutton.cms.gov/resources/variables/line_sbmtd_chrg_amt","display":"Line Submitted Charge Amount","system":"https://bluebutton.cms.gov/resources/codesystem/adjudication"}]}},{"amount":{"code":"USD","system":"urn:iso:std:iso:4217","value":140.52},"category":{"coding":[{"code":"https://bluebutton.cms.gov/resources/variables/line_alowd_chrg_amt","display":"Line Allowed Charge Amount","system":"https://bluebutton.cms.gov/resources/codesystem/adjudication"}]}},{"amount":{"code":"USD","system":"urn:iso:std:iso:4217","value":0},"category":{"coding":[{"code":"https://bluebutton.cms.gov/resources/variables/line_bene_ptb_ddctbl_amt","display":"Line Beneficiary Part B Deductible Amount","system":"https://bluebutton.cms.gov/resources/codesystem/adjudication"}]}},{"category":{"coding":[{"code":"https://bluebutton.cms.gov/resources/variables/line_prcsg_ind_cd","display":"Line Processing Indicator Code","system":"https://bluebutton.cms.gov/resources/codesystem/adjudication"}]},"reason":{"coding":[{"code":"A","display":"Allowed","system":"https://bluebutton.cms.gov/resources/variables/line_prcsg_ind_cd"}]}}],"category":{"coding":[{"code":"1","display":"Medical care","system":"https://bluebutton.cms.gov/resources/variables/line_cms_type_srvc_cd"}]},"informationLinkId":[1],"locationCodeableConcept":{"coding":[{"code":"21","display":"Inpatient Hospital","system":"https://bluebutton.cms.gov/resources/variables/line_place_of_srvc_cd"}]},"net":{"code":"USD","system":"urn:iso:std:iso:4217","value":140.52},"sequence":2,"servicedPeriod":{"end":"2016-12-07T07:27:23-05:00","start":"2016-12-07T06:57:23-05:00"}},{"adjudication":[{"amount":{"code":"USD","system":"urn:iso:std:iso:4217","value":70.204},"category":{"coding":[{"code":"https://bluebutton.cms.gov/resources/variables/line_coinsrnc_amt","display":"Line Beneficiary Coinsurance Amount","system":"https://bluebutton.cms.gov/resources/codesystem/adjudication"}]}},{"amount":{"code":"USD","system":"urn:iso:std:iso:4217","value":280.816},"category":{"coding":[{"code":"https://bluebutton.cms.gov/resources/variables/line_prvdr_pmt_amt","display":"Line Provider Payment Amount","system":"https://bluebutton.cms.gov/resources/codesystem/adjudication"}]}},{"amount":{"code":"USD","system":"urn:iso:std:iso:4217","value":351.02},"category":{"coding":[{"code":"https://bluebutton.cms.gov/resources/variables/line_sbmtd_chrg_amt","display":"Line Submitted Charge Amount","system":"https://bluebutton.cms.gov/resources/codesystem/adjudication"}]}},{"amount":{"code":"USD","system":"urn:iso:std:iso:4217","value":351.02},"category":{"coding":[{"code":"https://bluebutton.cms.gov/resources/variables/line_alowd_chrg_amt","display":"Line Allowed Charge Amount","system":"https://bluebutton.cms.gov/resources/codesystem/adjudication"}]}},{"amount":{"code":"USD","system":"urn:iso:std:iso:4217","value":0},"category":{"coding":[{"code":"https://bluebutton.cms.gov/resources/variables/line_bene_ptb_ddctbl_amt","display":"Line Beneficiary Part B Deductible Amount","system":"https://bluebutton.cms.gov/resources/codesystem/adjudication"}]}},{"category":{"coding":[{"code":"https://bluebutton.cms.gov/resources/variables/line_prcsg_ind_cd","display":"Line Processing Indicator Code","system":"https://bluebutton.cms.gov/resources/codesystem/adjudication"}]},"reason":{"coding":[{"code":"A","display":"Allowed","system":"https://bluebutton.cms.gov/resources/variables/line_prcsg_ind_cd"}]}}],"category":{"coding":[{"code":"1","display":"Medical care","system":"https://bluebutton.cms.gov/resources/variables/line_cms_type_srvc_cd"}]},"locationCodeableConcept":{"coding":[{"code":"21","display":"Inpatient Hospital","system":"https://bluebutton.cms.gov/resources/variables/line_place_of_srvc_cd"}]},"net":{"code":"USD","system":"urn:iso:std:iso:4217","value":351.02},"sequence":3,"service":{"coding":[{"code":"428191000124101","system":"http://snomed.info/sct","version":"v1"}]},"servicedPeriod":{"end":"2016-12-07T07:27:23-05:00","start":"2016-12-07T06:57:23-05:00"}}],"meta":{"lastUpdated":"2019-04-09T12:03:35.472830+00:00","versionId":"MTU1NDgxMTQxNTQ3MjgzMDAwMA"},"organization":{"identifier":{"value":"3c1a6594-2deb-4ff5-972a-a209361ec3eb"}},"patient":{"reference":"Patient/0accf4d2-156a-425c-8400-33c073a0f661"},"payment":{"amount":{"code":"USD","system":"urn:iso:std:iso:4217","value":393.23199999999997}},"provider":{"identifier":{"value":"26c419ce-a137-417b-90ef-8da89cacc8e3"}},"referral":{"reference":"#1"},"resourceType":"ExplanationOfBenefit","status":"active","totalCost":{"code":"USD","system":"urn:iso:std:iso:4217","value":616.54},"type":{"coding":[{"code":"71","display":"Local carrier non-durable medical equipment, prosthetics, orthotics, and supplies (DMEPOS) claim","system":"https://bluebutton.cms.gov/resources/variables/nch_clm_type_cd"},{"code":"CARRIER","display":"EOB Type","system":"https://bluebutton.cms.gov/resources/codesystem/eob-type"},{"code":"professional","display":"Claim Type","system":"http://hl7.org/fhir/ex-claimtype"},{"code":"O","display":"Part B physician/supplier claim record (processed by local carriers; can include DMEPOS services)","system":"https://bluebutton.cms.gov/resources/variables/nch_near_line_rec_ident_cd"}]}}},{"resource":{"billablePeriod":{"end":"2012-06-08T08:12:23-04:00","start":"2011-06-08T08:12:23-04:00"},"careTeam":[{"provider":{"identifier":{"system":"http://hl7.org/fhir/sid/us-npi","value":"99999999"}},"role":{"coding":[{"code":"primary","display":"Primary Care Practitioner","system":"http://hl7.org/fhir/claimcareteamrole"}]},"sequence":1}],"claim":{"reference":"Claim/87bac181-16b9-40b3-a510-89eeff6ff31f"},"contained":[{"id":"1","intent":"order","recipient":[{"identifier":{"system":"http://hl7.org/fhir/sid/us-npi","value":"99999999"}}],"requester":{"agent":{"identifier":{"system":"http://hl7.org/fhir/sid/us-npi","value":"99999999"}}},"resourceType":"ReferralRequest","status":"completed","subject":{"reference":"Patient/0accf4d2-156a-425c-8400-33c073a0f661"}},{"id":"coverage","resourceType":"Coverage","type":{"text":"private"}}],"created":"2011-06-08T08:12:23-04:00","id":"2b6df43c-e68c-4196-bee1-73718c2429ed","identifier":[{"system":"https://bluebutton.cms.gov/resources/variables/clm_id","value":"87bac181-16b9-40b3-a510-89eeff6ff31f"},{"system":"https://bluebutton.cms.gov/resources/identifier/claim-group","value":"99999999999"}],"insurance":{"coverage":{"reference":"#coverage"}},"item":[{"category":{"coding":[{"code":"1","display":"Medical care","system":"https://bluebutton.cms.gov/resources/variables/line_cms_type_srvc_cd"}]},"encounter":[{"reference":"Encounter/d2b2a75a-b0fe-45fb-bf04-5d6c9a54dd38"}],"locationCodeableConcept":{"coding":[{"code":"21","display":"Inpatient Hospital","system":"https://bluebutton.cms.gov/resources/variables/line_place_of_srvc_cd"}]},"sequence":1,"servicedPeriod":{"end":"2011-06-08T08:12:23-04:00","start":"2011-06-08T07:57:23-04:00"}}],"meta":{"lastUpdated":"2019-04-09T12:03:28.287494+00:00","versionId":"MTU1NDgxMTQwODI4NzQ5NDAwMA"},"organization":{"identifier":{"value":"057e5b30-6566-4cff-80cc-1e899ab80bae"}},"patient":{"reference":"Patient/0accf4d2-156a-425c-8400-33c073a0f661"},"payment":{"amount":{"code":"USD","system":"urn:iso:std:iso:4217","value":0}},"provider":{"identifier":{"value":"4e75658e-2496-4900-a2a4-e8aa600269ed"}},"referral":{"reference":"#1"},"resourceType":"ExplanationOfBenefit","status":"active","totalCost":{"code":"USD","system":"urn:iso:std:iso:4217","value":125},"type":{"coding":[{"code":"71","display":"Local carrier non-durable medical equipment, prosthetics, orthotics, and supplies (DMEPOS) claim","system":"https://bluebutton.cms.gov/resources/variables/nch_clm_type_cd"},{"code":"CARRIER","display":"EOB Type","system":"https://bluebutton.cms.gov/resources/codesystem/eob-type"},{"code":"professional","display":"Claim Type","system":"http://hl7.org/fhir/ex-claimtype"},{"code":"O","display":"Part B physician/supplier claim record (processed by local carriers; can include DMEPOS services)","system":"https://bluebutton.cms.gov/resources/variables/nch_near_line_rec_ident_cd"}]}}},{"resource":{"billablePeriod":{"end":"2010-04-21T08:34:23-04:00","extension":[{"url":"https://bluebutton.cms.gov/assets/ig/StructureDefinition-bluebutton-inpatient-claim-query-cd-extension","valueCoding":{"code":"3","display":"Final Bill","system":"https://bluebutton.cms.gov/assets/ig/ValueSet-claim-query-cd"}}],"start":"2009-04-21T08:34:23-04:00"},"careTeam":[{"provider":{"identifier":{"system":"http://hl7.org/fhir/sid/us-npi","value":"99999999"}},"role":{"coding":[{"code":"primary","display":"Primary Care Practitioner","system":"http://hl7.org/fhir/claimcareteamrole"}]},"sequence":1}],"contained":[{"id":"coverage","resourceType":"Coverage","type":{"text":"private"}}],"diagnosis":[{"diagnosisReference":{"reference":"Condition/9fcdde05-2f5d-4289-8eff-475f7bcd0ecf"},"extension":[{"url":"https://bluebutton.cms.gov/assets/ig/StructureDefinition-bluebutton-inpatient-clm-poa-ind-sw1-extension","valueCoding":{"code":"Y","display":"Diagnosis present at time of admission","system":"https://bluebutton.cms.gov/assets/ig/CodeSystem-clm-poa-ind-sw1"}}],"sequence":1,"type":[{"coding":[{"code":"principal","system":"https://bluebutton.cms.gov/resources/codesystem/diagnosis-type"}]}]}],"extension":[{"url":"https://bluebutton.cms.gov/assets/ig/StructureDefinition-bluebutton-inpatient-ime-op-clm-val-amt-extension","valueMoney":{"code":"USD","system":"urn:iso:std:iso:4217","value":400}},{"url":"https://bluebutton.cms.gov/assets/ig/StructureDefinition-bluebutton-inpatient-dsh-op-clm-val-amt-extension","valueMoney":{"code":"USD","system":"urn:iso:std:iso:4217","value":0}},{"url":"https://bluebutton.cms.gov/assets/ig/StructureDefinition-bluebutton-inpatient-clm-pass-thru-per-diem-amt-extension","valueMoney":{"code":"USD","system":"urn:iso:std:iso:4217","value":0}},{"url":"https://bluebutton.cms.gov/assets/ig/StructureDefinition-bluebutton-inpatient-nch-profnl-cmpnt-chrg-amt-extension","valueMoney":{"code":"USD","system":"urn:iso:std:iso:4217","value":0}},{"url":"https://bluebutton.cms.gov/assets/ig/StructureDefinition-bluebutton-inpatient-clm-tot-pps-cptl-amt-extension","valueMoney":{"code":"USD","system":"urn:iso:std:iso:4217","value":0}},{"url":"https://bluebutton.cms.gov/assets/ig/StructureDefinition-bluebutton-inpatient-nch-bene-ip-ddctbl-amt-extension","valueMoney":{"code":"USD","system":"urn:iso:std:iso:4217","value":0}},{"url":"https://bluebutton.cms.gov/assets/ig/StructureDefinition-bluebutton-inpatient-nch-bene-pta-coinsrnc-lblty-amt-extension","valueMoney":{"code":"USD","system":"urn:iso:std:iso:4217","value":0}},{"url":"https://bluebutton.cms.gov/assets/ig/StructureDefinition-bluebutton-inpatient-nch-ip-ncvrd-chrg-amt-extension","valueMoney":{"code":"USD","system":"urn:iso:std:iso:4217","value":0}},{"url":"https://bluebutton.cms.gov/assets/ig/StructureDefinition-bluebutton-inpatient-nch-ip-tot-ddctn-amt-extension","valueMoney":{"code":"USD","system":"urn:iso:std:iso:4217","value":0}},{"url":"https://bluebutton.cms.gov/assets/ig/StructureDefinition-bluebutton-inpatient-clm-pps-cptl-dsprprtnt-shr-amt-extension","valueMoney":{"code":"USD","system":"urn:iso:std:iso:4217","value":0}},{"url":"https://bluebutton.cms.gov/assets/ig/StructureDefinition-bluebutton-inpatient-clm-pps-cptl-excptn-amt-extension","valueMoney":{"code":"USD","system":"urn:iso:std:iso:4217","value":0}},{"url":"https://bluebutton.cms.gov/assets/ig/StructureDefinition-bluebutton-inpatient-clm-pps-cptl-fsp-amt-extension","valueMoney":{"code":"USD","system":"urn:iso:std:iso:4217","value":0}},{"url":"https://bluebutton.cms.gov/assets/ig/StructureDefinition-bluebutton-inpatient-clm-pps-cptl-ime-amt-extension","valueMoney":{"code":"USD","system":"urn:iso:std:iso:4217","value":400}},{"url":"https://bluebutton.cms.gov/assets/ig/StructureDefinition-bluebutton-inpatient-clm-pps-cptl-outlier-amt-extension","valueMoney":{"code":"USD","system":"urn:iso:std:iso:4217","value":0}},{"url":"https://bluebutton.cms.gov/assets/ig/StructureDefinition-bluebutton-inpatient-clm-pps-old-cptl-hld-hrmls-amt-extension","valueMoney":{"code":"USD","system":"urn:iso:std:iso:4217","value":0}},{"url":"https://bluebutton.cms.gov/assets/ig/StructureDefinition-bluebutton-inpatient-nch-drg-outlier-aprvd-pmt-amt-extension","valueMoney":{"code":"USD","system":"urn:iso:std:iso:4217","value":0}},{"url":"https://bluebutton.cms.gov/assets/ig/StructureDefinition-bluebutton-inpatient-nch-bene-blood-ddctbl-lblty-am-extension","valueMoney":{"code":"USD","system":"urn:iso:std:iso:4217","value":0}},{"url":"https://bluebutton.cms.gov/assets/ig/StructureDefinition-bluebutton-inpatient-clm-mdcr-non-pmt-rsn-cd-extension","valueCoding":{"code":"N","display":"All other reasons for non-payment","system":"https://bluebutton.cms.gov/assets/ig/CodeSystem-clm-mdcr-non-pmt-rsn-cd"}},{"url":"https://bluebutton.cms.gov/assets/ig/StructureDefinition-bluebutton-inpatient-prpayamt-extension","valueMoney":{"code":"USD","system":"urn:iso:std:iso:4217","value":0}},{"url":"https://bluebutton.cms.gov/assets/ig/StructureDefinition-bluebutton-inpatient-fi-num-extension","valueIdentifier":{"system":"https://bluebutton.cms.gov/assets/ig/CodeSystem-fi-num","value":"002000"}}],"id":"2e013b87-8507-46eb-b28b-714c2ce760df","identifier":[{"system":"https://bluebutton.cms.gov/resources/variables/clm_id","value":"569153a6-f256-4c6d-8af2-c126232420c5"},{"system":"https://bluebutton.cms.gov/resources/identifier/claim-group","value":"99999999999"}],"insurance":{"coverage":{"reference":"#coverage"}},"item":[{"extension":[{"url":"https://bluebutton.cms.gov/assets/ig/StructureDefinition-bluebutton-inpatient-rev-cntr-ndc-qty-extension","valueQuantity":{"value":0}}],"locationCodeableConcept":{"coding":[{"code":"21","display":"Inpatient Hospital","system":"https://bluebutton.cms.gov/resources/variables/line_place_of_srvc_cd"}]},"sequence":1},{"extension":[{"url":"https://bluebutton.cms.gov/assets/ig/StructureDefinition-bluebutton-inpatient-rev-cntr-ndc-qty-extension","valueQuantity":{"value":0}}],"locationCodeableConcept":{"coding":[{"code":"21","display":"Inpatient Hospital","system":"https://bluebutton.cms.gov/resources/variables/line_place_of_srvc_cd"}]},"sequence":2},{"adjudication":[{"amount":{"code":"USD","system":"urn:iso:std:iso:4217","value":103.33},"category":{"coding":[{"code":"https://bluebutton.cms.gov/resources/variables/line_coinsrnc_amt","display":"Line Beneficiary Coinsurance Amount","system":"https://bluebutton.cms.gov/resources/codesystem/adjudication"}]}},{"amount":{"code":"USD","system":"urn:iso:std:iso:4217","value":413.32},"category":{"coding":[{"code":"https://bluebutton.cms.gov/resources/variables/line_prvdr_pmt_amt","display":"Line Provider Payment Amount","system":"https://bluebutton.cms.gov/resources/codesystem/adjudication"}]}},{"amount":{"code":"USD","system":"urn:iso:std:iso:4217","value":516.65},"category":{"coding":[{"code":"https://bluebutton.cms.gov/resources/variables/line_sbmtd_chrg_amt","display":"Line Submitted Charge Amount","system":"https://bluebutton.cms.gov/resources/codesystem/adjudication"}]}},{"amount":{"code":"USD","system":"urn:iso:std:iso:4217","value":516.65},"category":{"coding":[{"code":"https://bluebutton.cms.gov/resources/variables/line_alowd_chrg_amt","display":"Line Allowed Charge Amount","system":"https://bluebutton.cms.gov/resources/codesystem/adjudication"}]}},{"amount":{"code":"USD","system":"urn:iso:std:iso:4217","value":0},"category":{"coding":[{"code":"https://bluebutton.cms.gov/resources/variables/line_bene_ptb_ddctbl_amt","display":"Line Beneficiary Part B Deductible Amount","system":"https://bluebutton.cms.gov/resources/codesystem/adjudication"}]}},{"category":{"coding":[{"code":"https://bluebutton.cms.gov/resources/variables/line_prcsg_ind_cd","display":"Line Processing Indicator Code","system":"https://bluebutton.cms.gov/resources/codesystem/adjudication"}]}}],"extension":[{"url":"https://bluebutton.cms.gov/assets/ig/StructureDefinition-bluebutton-inpatient-rev-cntr-ndc-qty-extension","valueQuantity":{"value":0}}],"locationCodeableConcept":{"coding":[{"code":"21","display":"Inpatient Hospital","system":"https://bluebutton.cms.gov/resources/variables/line_place_of_srvc_cd"}]},"sequence":3,"service":{"coding":[{"code":"23426006","system":"http://snomed.info/sct","version":"v1"}]}}],"meta":{"lastUpdated":"2019-04-09T12:03:26.170361+00:00","profile":["https://bluebutton.cms.gov/assets/ig/StructureDefinition-bluebutton-inpatient-claim"],"versionId":"MTU1NDgxMTQwNjE3MDM2MTAwMA"},"organization":{"identifier":{"value":"3c1a6594-2deb-4ff5-972a-a209361ec3eb"}},"patient":{"reference":"Patient/0accf4d2-156a-425c-8400-33c073a0f661"},"payment":{"amount":{"code":"USD","system":"urn:iso:std:iso:4217","value":413.32}},"provider":{"identifier":{"value":"26c419ce-a137-417b-90ef-8da89cacc8e3"}},"resourceType":"ExplanationOfBenefit","status":"active","totalCost":{"code":"USD","system":"urn:iso:std:iso:4217","value":641.65},"type":{"coding":[{"code":"71","display":"Local carrier non-durable medical equipment, prosthetics, orthotics, and supplies (DMEPOS) claim","system":"https://bluebutton.cms.gov/resources/variables/nch_clm_type_cd"},{"code":"CARRIER","display":"EOB Type","system":"https://bluebutton.cms.gov/resources/codesystem/eob-type"},{"code":"professional","display":"Claim Type","system":"http://hl7.org/fhir/ex-claimtype"},{"code":"O","display":"Part B physician/supplier claim record (processed by local carriers; can include DMEPOS services)","system":"https://bluebutton.cms.gov/resources/variables/nch_near_line_rec_ident_cd"}]}}},{"resource":{"billablePeriod":{"end":"2010-06-17T08:12:23-04:00","start":"2009-06-17T08:12:23-04:00"},"careTeam":[{"provider":{"identifier":{"system":"http://hl7.org/fhir/sid/us-npi","value":"99999999"}},"role":{"coding":[{"code":"primary","display":"Primary Care Practitioner","system":"http://hl7.org/fhir/claimcareteamrole"}]},"sequence":1}],"claim":{"reference":"Claim/83e8e85f-3647-44a8-a422-f34538595490"},"contained":[{"id":"1","intent":"order","recipient":[{"identifier":{"system":"http://hl7.org/fhir/sid/us-npi","value":"99999999"}}],"requester":{"agent":{"identifier":{"system":"http://hl7.org/fhir/sid/us-npi","value":"99999999"}}},"resourceType":"ReferralRequest","status":"completed","subject":{"reference":"Patient/0accf4d2-156a-425c-8400-33c073a0f661"}},{"id":"coverage","resourceType":"Coverage","type":{"text":"private"}}],"created":"2009-06-17T08:12:23-04:00","id":"2ec610df-7c94-4304-b8f7-a779498a7b48","identifier":[{"system":"https://bluebutton.cms.gov/resources/variables/clm_id","value":"83e8e85f-3647-44a8-a422-f34538595490"},{"system":"https://bluebutton.cms.gov/resources/identifier/claim-group","value":"99999999999"}],"insurance":{"coverage":{"reference":"#coverage"}},"item":[{"category":{"coding":[{"code":"1","display":"Medical care","system":"https://bluebutton.cms.gov/resources/variables/line_cms_type_srvc_cd"}]},"encounter":[{"reference":"Encounter/80470e9a-d760-4310-abe2-0670d2cca597"}],"locationCodeableConcept":{"coding":[{"code":"21","display":"Inpatient Hospital","system":"https://bluebutton.cms.gov/resources/variables/line_place_of_srvc_cd"}]},"sequence":1,"servicedPeriod":{"end":"2009-06-17T08:12:23-04:00","start":"2009-06-17T07:57:23-04:00"}}],"meta":{"lastUpdated":"2019-04-09T12:03:26.169816+00:00","versionId":"MTU1NDgxMTQwNjE2OTgxNjAwMA"},"organization":{"identifier":{"value":"057e5b30-6566-4cff-80cc-1e899ab80bae"}},"patient":{"reference":"Patient/0accf4d2-156a-425c-8400-33c073a0f661"},"payment":{"amount":{"code":"USD","system":"urn:iso:std:iso:4217","value":0}},"provider":{"identifier":{"value":"4e75658e-2496-4900-a2a4-e8aa600269ed"}},"referral":{"reference":"#1"},"resourceType":"ExplanationOfBenefit","status":"active","totalCost":{"code":"USD","system":"urn:iso:std:iso:4217","value":125},"type":{"coding":[{"code":"71","display":"Local carrier non-durable medical equipment, prosthetics, orthotics, and supplies (DMEPOS) claim","system":"https://bluebutton.cms.gov/resources/variables/nch_clm_type_cd"},{"code":"CARRIER","display":"EOB Type","system":"https://bluebutton.cms.gov/resources/codesystem/eob-type"},{"code":"professional","display":"Claim Type","system":"http://hl7.org/fhir/ex-claimtype"},{"code":"O","display":"Part B physician/supplier claim record (processed by local carriers; can include DMEPOS services)","system":"https://bluebutton.cms.gov/resources/variables/nch_near_line_rec_ident_cd"}]}}},{"resource":{"billablePeriod":{"end":"2011-01-13T07:12:23-05:00","start":"2010-01-13T07:12:23-05:00"},"careTeam":[{"provider":{"identifier":{"system":"http://hl7.org/fhir/sid/us-npi","value":"99999999"}},"role":{"coding":[{"code":"primary","display":"Primary Care Practitioner","system":"http://hl7.org/fhir/claimcareteamrole"}]},"sequence":1}],"claim":{"reference":"Claim/de6280e7-1428-41da-9c98-fbdc2a831914"},"contained":[{"id":"1","intent":"order","recipient":[{"identifier":{"system":"http://hl7.org/fhir/sid/us-npi","value":"99999999"}}],"requester":{"agent":{"identifier":{"system":"http://hl7.org/fhir/sid/us-npi","value":"99999999"}}},"resourceType":"ReferralRequest","status":"completed","subject":{"reference":"Patient/0accf4d2-156a-425c-8400-33c073a0f661"}},{"id":"coverage","resourceType":"Coverage","type":{"text":"private"}}],"created":"2010-01-13T07:12:23-05:00","id":"2ee4ca56-59bd-4b48-a5c5-a9931e3eed01","identifier":[{"system":"https://bluebutton.cms.gov/resources/variables/clm_id","value":"de6280e7-1428-41da-9c98-fbdc2a831914"},{"system":"https://bluebutton.cms.gov/resources/identifier/claim-group","value":"99999999999"}],"insurance":{"coverage":{"reference":"#coverage"}},"item":[{"category":{"coding":[{"code":"1","display":"Medical care","system":"https://bluebutton.cms.gov/resources/variables/line_cms_type_srvc_cd"}]},"encounter":[{"reference":"Encounter/f36f02ef-f8e7-44f0-972c-b33f50c8a5fa"}],"locationCodeableConcept":{"coding":[{"code":"21","display":"Inpatient Hospital","system":"https://bluebutton.cms.gov/resources/variables/line_place_of_srvc_cd"}]},"sequence":1,"servicedPeriod":{"end":"2010-01-13T07:12:23-05:00","start":"2010-01-13T06:57:23-05:00"}}],"meta":{"lastUpdated":"2019-04-09T12:03:27.224516+00:00","versionId":"MTU1NDgxMTQwNzIyNDUxNjAwMA"},"organization":{"identifier":{"value":"057e5b30-6566-4cff-80cc-1e899ab80bae"}},"patient":{"reference":"Patient/0accf4d2-156a-425c-8400-33c073a0f661"},"payment":{"amount":{"code":"USD","system":"urn:iso:std:iso:4217","value":0}},"provider":{"identifier":{"value":"4e75658e-2496-4900-a2a4-e8aa600269ed"}},"referral":{"reference":"#1"},"resourceType":"ExplanationOfBenefit","status":"active","totalCost":{"code":"USD","system":"urn:iso:std:iso:4217","value":125},"type":{"coding":[{"code":"71","display":"Local carrier non-durable medical equipment, prosthetics, orthotics, and supplies (DMEPOS) claim","system":"https://bluebutton.cms.gov/resources/variables/nch_clm_type_cd"},{"code":"CARRIER","display":"EOB Type","system":"https://bluebutton.cms.gov/resources/codesystem/eob-type"},{"code":"professional","display":"Claim Type","system":"http://hl7.org/fhir/ex-claimtype"},{"code":"O","display":"Part B physician/supplier claim record (processed by local carriers; can include DMEPOS services)","system":"https://bluebutton.cms.gov/resources/variables/nch_near_line_rec_ident_cd"}]}}},{"resource":{"billablePeriod":{"end":"2014-01-02T07:12:23-05:00","start":"2013-01-02T07:12:23-05:00"},"careTeam":[{"provider":{"identifier":{"system":"http://hl7.org/fhir/sid/us-npi","value":"99999999"}},"role":{"coding":[{"code":"primary","display":"Primary Care Practitioner","system":"http://hl7.org/fhir/claimcareteamrole"}]},"sequence":1}],"claim":{"reference":"Claim/cacfacd1-c617-4f42-8689-9f5ec5d177b2"},"contained":[{"id":"1","intent":"order","recipient":[{"identifier":{"system":"http://hl7.org/fhir/sid/us-npi","value":"99999999"}}],"requester":{"agent":{"identifier":{"system":"http://hl7.org/fhir/sid/us-npi","value":"99999999"}}},"resourceType":"ReferralRequest","status":"completed","subject":{"reference":"Patient/0accf4d2-156a-425c-8400-33c073a0f661"}},{"id":"coverage","resourceType":"Coverage","type":{"text":"private"}}],"created":"2013-01-02T07:12:23-05:00","id":"322f9960-063b-4225-ac62-5b362b612899","identifier":[{"system":"https://bluebutton.cms.gov/resources/variables/clm_id","value":"cacfacd1-c617-4f42-8689-9f5ec5d177b2"},{"system":"https://bluebutton.cms.gov/resources/identifier/claim-group","value":"99999999999"}],"insurance":{"coverage":{"reference":"#coverage"}},"item":[{"category":{"coding":[{"code":"1","display":"Medical care","system":"https://bluebutton.cms.gov/resources/variables/line_cms_type_srvc_cd"}]},"encounter":[{"reference":"Encounter/7876f290-4933-49c3-a833-2db9c0c217c9"}],"locationCodeableConcept":{"coding":[{"code":"21","display":"Inpatient Hospital","system":"https://bluebutton.cms.gov/resources/variables/line_place_of_srvc_cd"}]},"sequence":1,"servicedPeriod":{"end":"2013-01-02T07:12:23-05:00","start":"2013-01-02T06:57:23-05:00"}}],"meta":{"lastUpdated":"2019-04-09T12:03:29.385495+00:00","versionId":"MTU1NDgxMTQwOTM4NTQ5NTAwMA"},"organization":{"identifier":{"value":"057e5b30-6566-4cff-80cc-1e899ab80bae"}},"patient":{"reference":"Patient/0accf4d2-156a-425c-8400-33c073a0f661"},"payment":{"amount":{"code":"USD","system":"urn:iso:std:iso:4217","value":0}},"provider":{"identifier":{"value":"4e75658e-2496-4900-a2a4-e8aa600269ed"}},"referral":{"reference":"#1"},"resourceType":"ExplanationOfBenefit","status":"active","totalCost":{"code":"USD","system":"urn:iso:std:iso:4217","value":125},"type":{"coding":[{"code":"71","display":"Local carrier non-durable medical equipment, prosthetics, orthotics, and supplies (DMEPOS) claim","system":"https://bluebutton.cms.gov/resources/variables/nch_clm_type_cd"},{"code":"CARRIER","display":"EOB Type","system":"https://bluebutton.cms.gov/resources/codesystem/eob-type"},{"code":"professional","display":"Claim Type","system":"http://hl7.org/fhir/ex-claimtype"},{"code":"O","display":"Part B physician/supplier claim record (processed by local carriers; can include DMEPOS services)","system":"https://bluebutton.cms.gov/resources/variables/nch_near_line_rec_ident_cd"}]}}},{"resource":{"billablePeriod":{"end":"2014-07-31T08:12:23-04:00","start":"2013-07-31T08:12:23-04:00"},"careTeam":[{"provider":{"identifier":{"system":"http://hl7.org/fhir/sid/us-npi","value":"99999999"}},"role":{"coding":[{"code":"primary","display":"Primary Care Practitioner","system":"http://hl7.org/fhir/claimcareteamrole"}]},"sequence":1}],"claim":{"reference":"Claim/0e483c8c-6aa4-41e6-a95c-194fd1fd1102"},"contained":[{"id":"1","intent":"order","recipient":[{"identifier":{"system":"http://hl7.org/fhir/sid/us-npi","value":"99999999"}}],"requester":{"agent":{"identifier":{"system":"http://hl7.org/fhir/sid/us-npi","value":"99999999"}}},"resourceType":"ReferralRequest","status":"completed","subject":{"reference":"Patient/0accf4d2-156a-425c-8400-33c073a0f661"}},{"id":"coverage","resourceType":"Coverage","type":{"text":"private"}}],"created":"2013-07-31T08:12:23-04:00","id":"32c8a46f-0e93-4164-8e3d-0c86d6275e79","identifier":[{"system":"https://bluebutton.cms.gov/resources/variables/clm_id","value":"0e483c8c-6aa4-41e6-a95c-194fd1fd1102"},{"system":"https://bluebutton.cms.gov/resources/identifier/claim-group","value":"99999999999"}],"insurance":{"coverage":{"reference":"#coverage"}},"item":[{"category":{"coding":[{"code":"1","display":"Medical care","system":"https://bluebutton.cms.gov/resources/variables/line_cms_type_srvc_cd"}]},"encounter":[{"reference":"Encounter/889ecb36-920b-47af-860a-17dca11fab43"}],"locationCodeableConcept":{"coding":[{"code":"21","display":"Inpatient Hospital","system":"https://bluebutton.cms.gov/resources/variables/line_place_of_srvc_cd"}]},"sequence":1,"servicedPeriod":{"end":"2013-07-31T08:12:23-04:00","start":"2013-07-31T07:57:23-04:00"}}],"meta":{"lastUpdated":"2019-04-09T12:03:30.322337+00:00","versionId":"MTU1NDgxMTQxMDMyMjMzNzAwMA"},"organization":{"identifier":{"value":"057e5b30-6566-4cff-80cc-1e899ab80bae"}},"patient":{"reference":"Patient/0accf4d2-156a-425c-8400-33c073a0f661"},"payment":{"amount":{"code":"USD","system":"urn:iso:std:iso:4217","value":0}},"provider":{"identifier":{"value":"4e75658e-2496-4900-a2a4-e8aa600269ed"}},"referral":{"reference":"#1"},"resourceType":"ExplanationOfBenefit","status":"active","totalCost":{"code":"USD","system":"urn:iso:std:iso:4217","value":125},"type":{"coding":[{"code":"71","display":"Local carrier non-durable medical equipment, prosthetics, orthotics, and supplies (DMEPOS) claim","system":"https://bluebutton.cms.gov/resources/variables/nch_clm_type_cd"},{"code":"CARRIER","display":"EOB Type","system":"https://bluebutton.cms.gov/resources/codesystem/eob-type"},{"code":"professional","display":"Claim Type","system":"http://hl7.org/fhir/ex-claimtype"},{"code":"O","display":"Part B physician/supplier claim record (processed by local carriers; can include DMEPOS services)","system":"https://bluebutton.cms.gov/resources/variables/nch_near_line_rec_ident_cd"}]}}},{"resource":{"billablePeriod":{"end":"2016-08-19T08:12:23-04:00","start":"2015-08-19T08:12:23-04:00"},"careTeam":[{"provider":{"identifier":{"system":"http://hl7.org/fhir/sid/us-npi","value":"99999999"}},"role":{"coding":[{"code":"primary","display":"Primary Care Practitioner","system":"http://hl7.org/fhir/claimcareteamrole"}]},"sequence":1}],"claim":{"reference":"Claim/2fc37daf-5385-4999-a0db-144e330f2a98"},"contained":[{"id":"1","intent":"order","recipient":[{"identifier":{"system":"http://hl7.org/fhir/sid/us-npi","value":"99999999"}}],"requester":{"agent":{"identifier":{"system":"http://hl7.org/fhir/sid/us-npi","value":"99999999"}}},"resourceType":"ReferralRequest","status":"completed","subject":{"reference":"Patient/0accf4d2-156a-425c-8400-33c073a0f661"}},{"id":"coverage","resourceType":"Coverage","type":{"text":"private"}}],"created":"2015-08-19T08:12:23-04:00","id":"3c7ea97f-9e9e-48ce-b50a-40ee2f87cd7a","identifier":[{"system":"https://bluebutton.cms.gov/resources/variables/clm_id","value":"2fc37daf-5385-4999-a0db-144e330f2a98"},{"system":"https://bluebutton.cms.gov/resources/identifier/claim-group","value":"99999999999"}],"insurance":{"coverage":{"reference":"#coverage"}},"item":[{"category":{"coding":[{"code":"1","display":"Medical care","system":"https://bluebutton.cms.gov/resources/variables/line_cms_type_srvc_cd"}]},"encounter":[{"reference":"Encounter/24957591-2800-44a7-8ef5-1ba6e614ff36"}],"locationCodeableConcept":{"coding":[{"code":"21","display":"Inpatient Hospital","system":"https://bluebutton.cms.gov/resources/variables/line_place_of_srvc_cd"}]},"sequence":1,"servicedPeriod":{"end":"2015-08-19T08:12:23-04:00","start":"2015-08-19T07:57:23-04:00"}}],"meta":{"lastUpdated":"2019-04-09T12:03:33.405120+00:00","versionId":"MTU1NDgxMTQxMzQwNTEyMDAwMA"},"organization":{"identifier":{"value":"057e5b30-6566-4cff-80cc-1e899ab80bae"}},"patient":{"reference":"Patient/0accf4d2-156a-425c-8400-33c073a0f661"},"payment":{"amount":{"code":"USD","system":"urn:iso:std:iso:4217","value":0}},"provider":{"identifier":{"value":"4e75658e-2496-4900-a2a4-e8aa600269ed"}},"referral":{"reference":"#1"},"resourceType":"ExplanationOfBenefit","status":"active","totalCost":{"code":"USD","system":"urn:iso:std:iso:4217","value":125},"type":{"coding":[{"code":"71","display":"Local carrier non-durable medical equipment, prosthetics, orthotics, and supplies (DMEPOS) claim","system":"https://bluebutton.cms.gov/resources/variables/nch_clm_type_cd"},{"code":"CARRIER","display":"EOB Type","system":"https://bluebutton.cms.gov/resources/codesystem/eob-type"},{"code":"professional","display":"Claim Type","system":"http://hl7.org/fhir/ex-claimtype"},{"code":"O","display":"Part B physician/supplier claim record (processed by local carriers; can include DMEPOS services)","system":"https://bluebutton.cms.gov/resources/variables/nch_near_line_rec_ident_cd"}]}}},{"resource":{"billablePeriod":{"end":"2019-01-10T07:12:23-05:00","start":"2018-01-10T07:12:23-05:00"},"careTeam":[{"provider":{"identifier":{"system":"http://hl7.org/fhir/sid/us-npi","value":"99999999"}},"role":{"coding":[{"code":"primary","display":"Primary Care Practitioner","system":"http://hl7.org/fhir/claimcareteamrole"}]},"sequence":1}],"claim":{"reference":"Claim/c8f0c492-0c25-414e-a01c-7c540a5e8b5c"},"contained":[{"id":"1","intent":"order","recipient":[{"identifier":{"system":"http://hl7.org/fhir/sid/us-npi","value":"99999999"}}],"requester":{"agent":{"identifier":{"system":"http://hl7.org/fhir/sid/us-npi","value":"99999999"}}},"resourceType":"ReferralRequest","status":"completed","subject":{"reference":"Patient/0accf4d2-156a-425c-8400-33c073a0f661"}},{"id":"coverage","resourceType":"Coverage","type":{"text":"private"}}],"created":"2018-01-10T07:12:23-05:00","id":"3cc7aba9-f439-472d-aac3-085164c1dc66","identifier":[{"system":"https://bluebutton.cms.gov/resources/variables/clm_id","value":"c8f0c492-0c25-414e-a01c-7c540a5e8b5c"},{"system":"https://bluebutton.cms.gov/resources/identifier/claim-group","value":"99999999999"}],"insurance":{"coverage":{"reference":"#coverage"}},"item":[{"category":{"coding":[{"code":"1","display":"Medical care","system":"https://bluebutton.cms.gov/resources/variables/line_cms_type_srvc_cd"}]},"encounter":[{"reference":"Encounter/49048e56-4edf-483c-afde-f2cbb79e5c58"}],"locationCodeableConcept":{"coding":[{"code":"21","display":"Inpatient Hospital","system":"https://bluebutton.cms.gov/resources/variables/line_place_of_srvc_cd"}]},"sequence":1,"servicedPeriod":{"end":"2018-01-10T07:12:23-05:00","start":"2018-01-10T06:57:23-05:00"}}],"meta":{"lastUpdated":"2019-04-09T12:03:36.488451+00:00","versionId":"MTU1NDgxMTQxNjQ4ODQ1MTAwMA"},"organization":{"identifier":{"value":"057e5b30-6566-4cff-80cc-1e899ab80bae"}},"patient":{"reference":"Patient/0accf4d2-156a-425c-8400-33c073a0f661"},"payment":{"amount":{"code":"USD","system":"urn:iso:std:iso:4217","value":0}},"provider":{"identifier":{"value":"4e75658e-2496-4900-a2a4-e8aa600269ed"}},"referral":{"reference":"#1"},"resourceType":"ExplanationOfBenefit","status":"active","totalCost":{"code":"USD","system":"urn:iso:std:iso:4217","value":125},"type":{"coding":[{"code":"71","display":"Local carrier non-durable medical equipment, prosthetics, orthotics, and supplies (DMEPOS) claim","system":"https://bluebutton.cms.gov/resources/variables/nch_clm_type_cd"},{"code":"CARRIER","display":"EOB Type","system":"https://bluebutton.cms.gov/resources/codesystem/eob-type"},{"code":"professional","display":"Claim Type","system":"http://hl7.org/fhir/ex-claimtype"},{"code":"O","display":"Part B physician/supplier claim record (processed by local carriers; can include DMEPOS services)","system":"https://bluebutton.cms.gov/resources/variables/nch_near_line_rec_ident_cd"}]}}}],"link":[{"url":"https://syntheticmass.mitre.org/v1/fhir/Patient/0accf4d2-156a-425c-8400-33c073a0f661/$everything?_count=100&page_token=CoIBcHJvamVjdHMvc3ludGhlYS9sb2NhdGlvbnMvdXMtY2VudHJhbDEvZGF0YXNldHMvMjAxOTAyL2ZoaXJTdG9yZXMvc3ludGhldGljLW1hc3MvZmhpci9QYXRpZW50LzBhY2NmNGQyLTE1NmEtNDI1Yy04NDAwLTMzYzA3M2EwZjY2MSCsAg%3D%3D","relation":"previous"},{"url":"https://syntheticmass.mitre.org/v1/fhir/Patient/0accf4d2-156a-425c-8400-33c073a0f661/$everything?_count=100&page_token=CoIBcHJvamVjdHMvc3ludGhlYS9sb2NhdGlvbnMvdXMtY2VudHJhbDEvZGF0YXNldHMvMjAxOTAyL2ZoaXJTdG9yZXMvc3ludGhldGljLW1hc3MvZmhpci9QYXRpZW50LzBhY2NmNGQyLTE1NmEtNDI1Yy04NDAwLTMzYzA3M2EwZjY2MSD0Aw%3D%3D","relation":"next"}],"total":1893}
