{"resourceType":"Bundle","type":"searchset","entry":[{"resource":{"billablePeriod":{"end":"2014-08-28T08:12:23-04:00","start":"2013-08-28T08:12:23-04:00"},"careTeam":[{"provider":{"identifier":{"system":"http://hl7.org/fhir/sid/us-npi","value":"99999999"}},"role":{"coding":[{"code":"primary","display":"Primary Care Practitioner","system":"http://hl7.org/fhir/claimcareteamrole"}]},"sequence":1}],"claim":{"reference":"Claim/d92be0db-6ba1-4095-8c03-0ff2a7395c44"},"contained":[{"id":"1","intent":"order","recipient":[{"identifier":{"system":"http://hl7.org/fhir/sid/us-npi","value":"99999999"}}],"requester":{"agent":{"identifier":{"system":"http://hl7.org/fhir/sid/us-npi","value":"99999999"}}},"resourceType":"ReferralRequest","status":"completed","subject":{"reference":"Patient/0accf4d2-156a-425c-8400-33c073a0f661"}},{"id":"coverage","resourceType":"Coverage","type":{"text":"private"}}],"created":"2013-08-28T08:12:23-04:00","id":"dc638078-8450-4c86-917e-3f8b48b03f04","identifier":[{"system":"https://bluebutton.cms.gov/resources/variables/clm_id","value":"d92be0db-6ba1-4095-8c03-0ff2a7395c44"},{"system":"https://bluebutton.cms.gov/resources/identifier/claim-group","value":"99999999999"}],"insurance":{"coverage":{"reference":"#coverage"}},"item":[{"category":{"coding":[{"code":"1","display":"Medical care","system":"https://bluebutton.cms.gov/resources/variables/line_cms_type_srvc_cd"}]},"encounter":[{"reference":"Encounter/79bec688-7b46-450e-a9a0-245aca092bf4"}],"locationCodeableConcept":{"coding":[{"code":"21","display":"Inpatient Hospital","system":"https://bluebutton.cms.gov/resources/variables/line_place_of_srvc_cd"}]},"sequence":1,"servicedPeriod":{"end":"2013-08-28T08:12:23-04:00","start":"2013-08-28T07:57:23-04:00"}}],"meta":{"lastUpdated":"2019-04-09T12:03:30.337918+00:00","versionId":"MTU1NDgxMTQxMDMzNzkxODAwMA"},"organization":{"identifier":{"value":"057e5b30-6566-4cff-80cc-1e899ab80bae"}},"patient":{"reference":"Patient/0accf4d2-156a-425c-8400-33c073a0f661"},"payment":{"amount":{"code":"USD","system":"urn:iso:std:iso:4217","value":0}},"provider":{"identifier":{"value":"4e75658e-2496-4900-a2a4-e8aa600269ed"}},"referral":{"reference":"#1"},"resourceType":"ExplanationOfBenefit","status":"active","totalCost":{"code":"USD","system":"urn:iso:std:iso:4217","value":125},"type":{"coding":[{"code":"71","display":"Local carrier non-durable medical equipment, prosthetics, orthotics, and supplies (DMEPOS) claim","system":"https://bluebutton.cms.gov/resources/variables/nch_clm_type_cd"},{"code":"CARRIER","display":"EOB Type","system":"https://bluebutton.cms.gov/resources/codesystem/eob-type"},{"code":"professional","display":"Claim Type","system":"http://hl7.org/fhir/ex-claimtype"},{"code":"O","display":"Part B physician/supplier claim record (processed by local carriers; can include DMEPOS services)","system":"https://bluebutton.cms.gov/resources/variables/nch_near_line_rec_ident_cd"}]}}},{"resource":{"billablePeriod":{"end":"2019-12-26T07:12:23-05:00","start":"2018-12-26T07:12:23-05:00"},"careTeam":[{"provider":{"identifier":{"system":"http://hl7.org/fhir/sid/us-npi","value":"99999999"}},"role":{"coding":[{"code":"primary","display":"Primary Care Practitioner","system":"http://hl7.org/fhir/claimcareteamrole"}]},"sequence":1}],"claim":{"reference":"Claim/f1f14048-b4cd-4e0b-9080-9cab0cd4b5d9"},"contained":[{"id":"1","intent":"order","recipient":[{"identifier":{"system":"http://hl7.org/fhir/sid/us-npi","value":"99999999"}}],"requester":{"agent":{"identifier":{"system":"http://hl7.org/fhir/sid/us-npi","value":"99999999"}}},"resourceType":"ReferralRequest","status":"completed","subject":{"reference":"Patient/0accf4d2-156a-425c-8400-33c073a0f661"}},{"id":"coverage","resourceType":"Coverage","type":{"text":"private"}}],"created":"2018-12-26T07:12:23-05:00","id":"dcbf440e-2812-4cf3-ba2b-8c4339c16f1a","identifier":[{"system":"https://bluebutton.cms.gov/resources/variables/clm_id","value":"f1f14048-b4cd-4e0b-9080-9cab0cd4b5d9"},{"system":"https://bluebutton.cms.gov/resources/identifier/claim-group","value":"99999999999"}],"insurance":{"coverage":{"reference":"#coverage"}},"item":[{"category":{"coding":[{"code":"1","display":"Medical care","system":"https://bluebutton.cms.gov/resources/variables/line_cms_type_srvc_cd"}]},"encounter":[{"reference":"Encounter/db67f599-7a90-4feb-b5f1-771cca9c5269"}],"locationCodeableConcept":{"coding":[{"code":"21","display":"Inpatient Hospital","system":"https://bluebutton.cms.gov/resources/variables/line_place_of_srvc_cd"}]},"sequence":1,"servicedPeriod":{"end":"2018-12-26T07:12:23-05:00","start":"2018-12-26T06:57:23-05:00"}}],"meta":{"lastUpdated":"2019-04-09T12:03:37.513968+00:00","versionId":"MTU1NDgxMTQxNzUxMzk2ODAwMA"},"organization":{"identifier":{"value":"3c1a6594-2deb-4ff5-972a-a209361ec3eb"}},"patient":{"reference":"Patient/0accf4d2-156a-425c-8400-33c073a0f661"},"payment":{"amount":{"code":"USD","system":"urn:iso:std:iso:4217","value":0}},"provider":{"identifier":{"value":"26c419ce-a137-417b-90ef-8da89cacc8e3"}},"referral":{"reference":"#1"},"resourceType":"ExplanationOfBenefit","status":"active","totalCost":{"code":"USD","system":"urn:iso:std:iso:4217","value":125},"type":{"coding":[{"code":"71","display":"Local carrier non-durable medical equipment, prosthetics, orthotics, and supplies (DMEPOS) claim","system":"https://bluebutton.cms.gov/resources/variables/nch_clm_type_cd"},{"code":"CARRIER","display":"EOB Type","system":"https://bluebutton.cms.gov/resources/codesystem/eob-type"},{"code":"professional","display":"Claim Type","system":"http://hl7.org/fhir/ex-claimtype"},{"code":"O","display":"Part B physician/supplier claim record (processed by local carriers; can include DMEPOS services)","system":"https://bluebutton.cms.gov/resources/variables/nch_near_line_rec_ident_cd"}]}}},{"resource":{"billablePeriod":{"end":"2011-10-13T08:12:23-04:00","start":"2010-10-13T08:12:23-04:00"},"careTeam":[{"provider":{"identifier":{"system":"http://hl7.org/fhir/sid/us-npi","value":"99999999"}},"role":{"coding":[{"code":"primary","display":"Primary Care Practitioner","system":"http://hl7.org/fhir/claimcareteamrole"}]},"sequence":1}],"claim":{"reference":"Claim/33c77a0e-ffc2-4ee4-863c-7edf4e0cc961"},"contained":[{"id":"1","intent":"order","recipient":[{"identifier":{"system":"http://hl7.org/fhir/sid/us-npi","value":"99999999"}}],"requester":{"agent":{"identifier":{"system":"http://hl7.org/fhir/sid/us-npi","value":"99999999"}}},"resourceType":"ReferralRequest","status":"completed","subject":{"reference":"Patient/0accf4d2-156a-425c-8400-33c073a0f661"}},{"id":"coverage","resourceType":"Coverage","type":{"text":"private"}}],"created":"2010-10-13T08:12:23-04:00","id":"dcd5edba-da79-40af-a851-e0c63c5d4499","identifier":[{"system":"https://bluebutton.cms.gov/resources/variables/clm_id","value":"33c77a0e-ffc2-4ee4-863c-7edf4e0cc961"},{"system":"https://bluebutton.cms.gov/resources/identifier/claim-group","value":"99999999999"}],"insurance":{"coverage":{"reference":"#coverage"}},"item":[{"category":{"coding":[{"code":"1","display":"Medical care","system":"https://bluebutton.cms.gov/resources/variables/line_cms_type_srvc_cd"}]},"encounter":[{"reference":"Encounter/f53f354b-5475-4711-bba1-9b1bbb36b430"}],"locationCodeableConcept":{"coding":[{"code":"21","display":"Inpatient Hospital","system":"https://bluebutton.cms.gov/resources/variables/line_place_of_srvc_cd"}]},"sequence":1,"servicedPeriod":{"end":"2010-10-13T08:12:23-04:00","start":"2010-10-13T07:57:23-04:00"}}],"meta":{"lastUpdated":"2019-04-09T12:03:27.225248+00:00","versionId":"MTU1NDgxMTQwNzIyNTI0ODAwMA"},"organization":{"identifier":{"value":"057e5b30-6566-4cff-80cc-1e899ab80bae"}},"patient":{"reference":"Patient/0accf4d2-156a-425c-8400-33c073a0f661"},"payment":{"amount":{"code":"USD","system":"urn:iso:std:iso:4217","value":0}},"provider":{"identifier":{"value":"4e75658e-2496-4900-a2a4-e8aa600269ed"}},"referral":{"reference":"#1"},"resourceType":"ExplanationOfBenefit","status":"active","totalCost":{"code":"USD","system":"urn:iso:std:iso:4217","value":125},"type":{"coding":[{"code":"71","display":"Local carrier non-durable medical equipment, prosthetics, orthotics, and supplies (DMEPOS) claim","system":"https://bluebutton.cms.gov/resources/variables/nch_clm_type_cd"},{"code":"CARRIER","display":"EOB Type","system":"https://bluebutton.cms.gov/resources/codesystem/eob-type"},{"code":"professional","display":"Claim Type","system":"http://hl7.org/fhir/ex-claimtype"},{"code":"O","display":"Part B physician/supplier claim record (processed by local carriers; can include DMEPOS services)","system":"https://bluebutton.cms.gov/resources/variables/nch_near_line_rec_ident_cd"}]}}},{"resource":{"billablePeriod":{"end":"2011-12-08T07:12:23-05:00","start":"2010-12-08T07:12:23-05:00"},"careTeam":[{"provider":{"identifier":{"system":"http://hl7.org/fhir/sid/us-npi","value":"99999999"}},"role":{"coding":[{"code":"primary","display":"Primary Care Practitioner","system":"http://hl7.org/fhir/claimcareteamrole"}]},"sequence":1}],"claim":{"reference":"Claim/83d772ba-75c9-49ec-a64f-882cbec9c37e"},"contained":[{"id":"1","intent":"order","recipient":[{"identifier":{"system":"http://hl7.org/fhir/sid/us-npi","value":"99999999"}}],"requester":{"agent":{"identifier":{"system":"http://hl7.org/fhir/sid/us-npi","value":"99999999"}}},"resourceType":"ReferralRequest","status":"completed","subject":{"reference":"Patient/0accf4d2-156a-425c-8400-33c073a0f661"}},{"id":"coverage","resourceType":"Coverage","type":{"text":"private"}}],"created":"2010-12-08T07:12:23-05:00","id":"de1788e3-863b-4719-8adb-25058d354301","identifier":[{"system":"https://bluebutton.cms.gov/resources/variables/clm_id","value":"83d772ba-75c9-49ec-a64f-882cbec9c37e"},{"system":"https://bluebutton.cms.gov/resources/identifier/claim-group","value":"99999999999"}],"insurance":{"coverage":{"reference":"#coverage"}},"item":[{"category":{"coding":[{"code":"1","display":"Medical care","system":"https://bluebutton.cms.gov/resources/variables/line_cms_type_srvc_cd"}]},"encounter":[{"reference":"Encounter/b70ffe0b-4ae1-4cd1-bf27-b88f0d56f5c7"}],"locationCodeableConcept":{"coding":[{"code":"21","display":"Inpatient Hospital","system":"https://bluebutton.cms.gov/resources/variables/line_place_of_srvc_cd"}]},"sequence":1,"servicedPeriod":{"end":"2010-12-08T07:12:23-05:00","start":"2010-12-08T06:57:23-05:00"}},{"adjudication":[{"amount":{"code":"USD","system":"urn:iso:std:iso:4217","value":28.104000000000003},"category":{"coding":[{"code":"https://bluebutton.cms.gov/resources/variables/line_coinsrnc_amt","display":"Line Beneficiary Coinsurance Amount","system":"https://bluebutton.cms.gov/resources/codesystem/adjudication"}]}},{"amount":{"code":"USD","system":"urn:iso:std:iso:4217","value":112.41600000000001},"category":{"coding":[{"code":"https://bluebutton.cms.gov/resources/variables/line_prvdr_pmt_amt","display":"Line Provider Payment Amount","system":"https://bluebutton.cms.gov/resources/codesystem/adjudication"}]}},{"amount":{"code":"USD","system":"urn:iso:std:iso:4217","value":140.52},"category":{"coding":[{"code":"https://bluebutton.cms.gov/resources/variables/line_sbmtd_chrg_amt","display":"Line Submitted Charge Amount","system":"https://bluebutton.cms.gov/resources/codesystem/adjudication"}]}},{"amount":{"code":"USD","system":"urn:iso:std:iso:4217","value":140.52},"category":{"coding":[{"code":"https://bluebutton.cms.gov/resources/variables/line_alowd_chrg_amt","display":"Line Allowed Charge Amount","system":"https://bluebutton.cms.gov/resources/codesystem/adjudication"}]}},{"amount":{"code":"USD","system":"urn:iso:std:iso:4217","value":0},"category":{"coding":[{"code":"https://bluebutton.cms.gov/resources/variables/line_bene_ptb_ddctbl_amt","display":"Line Beneficiary Part B Deductible Amount","system":"https://bluebutton.cms.gov/resources/codesystem/adjudication"}]}},{"category":{"coding":[{"code":"https://bluebutton.cms.gov/resources/variables/line_prcsg_ind_cd","display":"Line Processing Indicator Code","system":"https://bluebutton.cms.gov/resources/codesystem/adjudication"}]},"reason":{"coding":[{"code":"A","display":"Allowed","system":"https://bluebutton.cms.gov/resources/variables/line_prcsg_ind_cd"}]}}],"category":{"coding":[{"code":"1","display":"Medical care","system":"https://bluebutton.cms.gov/resources/variables/line_cms_type_srvc_cd"}]},"informationLinkId":[1],"locationCodeableConcept":{"coding":[{"code":"21","display":"Inpatient Hospital","system":"https://bluebutton.cms.gov/resources/variables/line_place_of_srvc_cd"}]},"net":{"code":"USD","system":"urn:iso:std:iso:4217","value":140.52},"sequence":2,"servicedPeriod":{"end":"2010-12-08T07:12:23-05:00","start":"2010-12-08T06:57:23-05:00"}}],"meta":{"lastUpdated":"2019-04-09T12:03:27.232272+00:00","versionId":"MTU1NDgxMTQwNzIzMjI3MjAwMA"},"organization":{"identifier":{"value":"3c1a6594-2deb-4ff5-972a-a209361ec3eb"}},"patient":{"reference":"Patient/0accf4d2-156a-425c-8400-33c073a0f661"},"payment":{"amount":{"code":"USD","system":"urn:iso:std:iso:4217","value":112.41600000000001}},"provider":{"identifier":{"value":"26c419ce-a137-417b-90ef-8da89cacc8e3"}},"referral":{"reference":"#1"},"resourceType":"ExplanationOfBenefit","status":"active","totalCost":{"code":"USD","system":"urn:iso:std:iso:4217","value":265.52},"type":{"coding":[{"code":"71","display":"Local carrier non-durable medical equipment, prosthetics, orthotics, and supplies (DMEPOS) claim","system":"https://bluebutton.cms.gov/resources/variables/nch_clm_type_cd"},{"code":"CARRIER","display":"EOB Type","system":"https://bluebutton.cms.gov/resources/codesystem/eob-type"},{"code":"professional","display":"Claim Type","system":"http://hl7.org/fhir/ex-claimtype"},{"code":"O","display":"Part B physician/supplier claim record (processed by local carriers; can include DMEPOS services)","system":"https://bluebutton.cms.gov/resources/variables/nch_near_line_rec_ident_cd"}]}}},{"resource":{"billablePeriod":{"end":"2012-09-07T08:12:23-04:00","start":"2011-09-07T08:12:23-04:00"},"careTeam":[{"provider":{"identifier":{"system":"http://hl7.org/fhir/sid/us-npi","value":"99999999"}},"role":{"coding":[{"code":"primary","display":"Primary Care Practitioner","system":"http://hl7.org/fhir/claimcareteamrole"}]},"sequence":1}],"claim":{"reference":"Claim/fc70b029-b7c8-4760-9632-ca456686134c"},"contained":[{"id":"1","intent":"order","recipient":[{"identifier":{"system":"http://hl7.org/fhir/sid/us-npi","value":"99999999"}}],"requester":{"agent":{"identifier":{"system":"http://hl7.org/fhir/sid/us-npi","value":"99999999"}}},"resourceType":"ReferralRequest","status":"completed","subject":{"reference":"Patient/0accf4d2-156a-425c-8400-33c073a0f661"}},{"id":"coverage","resourceType":"Coverage","type":{"text":"private"}}],"created":"2011-09-07T08:12:23-04:00","id":"dece974c-18ab-41bb-b989-4cd8df943f14","identifier":[{"system":"https://bluebutton.cms.gov/resources/variables/clm_id","value":"fc70b029-b7c8-4760-9632-ca456686134c"},{"system":"https://bluebutton.cms.gov/resources/identifier/claim-group","value":"99999999999"}],"insurance":{"coverage":{"reference":"#coverage"}},"item":[{"category":{"coding":[{"code":"1","display":"Medical care","system":"https://bluebutton.cms.gov/resources/variables/line_cms_type_srvc_cd"}]},"encounter":[{"reference":"Encounter/7d5f90cf-9aa2-44f4-b05a-9c55d47bd832"}],"locationCodeableConcept":{"coding":[{"code":"21","display":"Inpatient Hospital","system":"https://bluebutton.cms.gov/resources/variables/line_place_of_srvc_cd"}]},"sequence":1,"servicedPeriod":{"end":"2011-09-07T08:12:23-04:00","start":"2011-09-07T07:57:23-04:00"}}],"meta":{"lastUpdated":"2019-04-09T12:03:28.284864+00:00","versionId":"MTU1NDgxMTQwODI4NDg2NDAwMA"},"organization":{"identifier":{"value":"057e5b30-6566-4cff-80cc-1e899ab80bae"}},"patient":{"reference":"Patient/0accf4d2-156a-425c-8400-33c073a0f661"},"payment":{"amount":{"code":"USD","system":"urn:iso:std:iso:4217","value":0}},"provider":{"identifier":{"value":"4e75658e-2496-4900-a2a4-e8aa600269ed"}},"referral":{"reference":"#1"},"resourceType":"ExplanationOfBenefit","status":"active","totalCost":{"code":"USD","system":"urn:iso:std:iso:4217","value":125},"type":{"coding":[{"code":"71","display":"Local carrier non-durable medical equipment, prosthetics, orthotics, and supplies (DMEPOS) claim","system":"https://bluebutton.cms.gov/resources/variables/nch_clm_type_cd"},{"code":"CARRIER","display":"EOB Type","system":"https://bluebutton.cms.gov/resources/codesystem/eob-type"},{"code":"professional","display":"Claim Type","system":"http://hl7.org/fhir/ex-claimtype"},{"code":"O","display":"Part B physician/supplier claim record (processed by local carriers; can include DMEPOS services)","system":"https://bluebutton.cms.gov/resources/variables/nch_near_line_rec_ident_cd"}]}}},{"resource":{"billablePeriod":{"end":"1989-05-23T08:39:23-04:00","extension":[{"url":"https://bluebutton.cms.gov/assets/ig/StructureDefinition-bluebutton-inpatient-claim-query-cd-extension","valueCoding":{"code":"3","display":"Final Bill","system":"https://bluebutton.cms.gov/assets/ig/ValueSet-claim-query-cd"}}],"start":"1988-05-23T08:39:23-04:00"},"careTeam":[{"provider":{"identifier":{"system":"http://hl7.org/fhir/sid/us-npi","value":"99999999"}},"role":{"coding":[{"code":"primary","display":"Primary Care Practitioner","system":"http://hl7.org/fhir/claimcareteamrole"}]},"sequence":1}],"contained":[{"id":"coverage","resourceType":"Coverage","type":{"text":"private"}}],"extension":[{"url":"https://bluebutton.cms.gov/assets/ig/StructureDefinition-bluebutton-inpatient-ime-op-clm-val-amt-extension","valueMoney":{"code":"USD","system":"urn:iso:std:iso:4217","value":400}},{"url":"https://bluebutton.cms.gov/assets/ig/StructureDefinition-bluebutton-inpatient-dsh-op-clm-val-amt-extension","valueMoney":{"code":"USD","system":"urn:iso:std:iso:4217","value":0}},{"url":"https://bluebutton.cms.gov/assets/ig/StructureDefinition-bluebutton-inpatient-clm-pass-thru-per-diem-amt-extension","valueMoney":{"code":"USD","system":"urn:iso:std:iso:4217","value":0}},{"url":"https://bluebutton.cms.gov/assets/ig/StructureDefinition-bluebutton-inpatient-nch-profnl-cmpnt-chrg-amt-extension","valueMoney":{"code":"USD","system":"urn:iso:std:iso:4217","value":0}},{"url":"https://bluebutton.cms.gov/assets/ig/StructureDefinition-bluebutton-inpatient-clm-tot-pps-cptl-amt-extension","valueMoney":{"code":"USD","system":"urn:iso:std:iso:4217","value":0}},{"url":"https://bluebutton.cms.gov/assets/ig/StructureDefinition-bluebutton-inpatient-nch-bene-ip-ddctbl-amt-extension","valueMoney":{"code":"USD","system":"urn:iso:std:iso:4217","value":0}},{"url":"https://bluebutton.cms.gov/assets/ig/StructureDefinition-bluebutton-inpatient-nch-bene-pta-coinsrnc-lblty-amt-extension","valueMoney":{"code":"USD","system":"urn:iso:std:iso:4217","value":0}},{"url":"https://bluebutton.cms.gov/assets/ig/StructureDefinition-bluebutton-inpatient-nch-ip-ncvrd-chrg-amt-extension","valueMoney":{"code":"USD","system":"urn:iso:std:iso:4217","value":0}},{"url":"https://bluebutton.cms.gov/assets/ig/StructureDefinition-bluebutton-inpatient-nch-ip-tot-ddctn-amt-extension","valueMoney":{"code":"USD","system":"urn:iso:std:iso:4217","value":0}},{"url":"https://bluebutton.cms.gov/assets/ig/StructureDefinition-bluebutton-inpatient-clm-pps-cptl-dsprprtnt-shr-amt-extension","valueMoney":{"code":"USD","system":"urn:iso:std:iso:4217","value":0}},{"url":"https://bluebutton.cms.gov/assets/ig/StructureDefinition-bluebutton-inpatient-clm-pps-cptl-excptn-amt-extension","valueMoney":{"code":"USD","system":"urn:iso:std:iso:4217","value":0}},{"url":"https://bluebutton.cms.gov/assets/ig/StructureDefinition-bluebutton-inpatient-clm-pps-cptl-fsp-amt-extension","valueMoney":{"code":"USD","system":"urn:iso:std:iso:4217","value":0}},{"url":"https://bluebutton.cms.gov/assets/ig/StructureDefinition-bluebutton-inpatient-clm-pps-cptl-ime-amt-extension","valueMoney":{"code":"USD","system":"urn:iso:std:iso:4217","value":400}},{"url":"https://bluebutton.cms.gov/assets/ig/StructureDefinition-bluebutton-inpatient-clm-pps-cptl-outlier-amt-extension","valueMoney":{"code":"USD","system":"urn:iso:std:iso:4217","value":0}},{"url":"https://bluebutton.cms.gov/assets/ig/StructureDefinition-bluebutton-inpatient-clm-pps-old-cptl-hld-hrmls-amt-extension","valueMoney":{"code":"USD","system":"urn:iso:std:iso:4217","value":0}},{"url":"https://bluebutton.cms.gov/assets/ig/StructureDefinition-bluebutton-inpatient-nch-drg-outlier-aprvd-pmt-amt-extension","valueMoney":{"code":"USD","system":"urn:iso:std:iso:4217","value":0}},{"url":"https://bluebutton.cms.gov/assets/ig/StructureDefinition-bluebutton-inpatient-nch-bene-blood-ddctbl-lblty-am-extension","valueMoney":{"code":"USD","system":"urn:iso:std:iso:4217","value":0}},{"url":"https://bluebutton.cms.gov/assets/ig/StructureDefinition-bluebutton-inpatient-clm-mdcr-non-pmt-rsn-cd-extension","valueCoding":{"code":"N","display":"All other reasons for non-payment","system":"https://bluebutton.cms.gov/assets/ig/CodeSystem-clm-mdcr-non-pmt-rsn-cd"}},{"url":"https://bluebutton.cms.gov/assets/ig/StructureDefinition-bluebutton-inpatient-prpayamt-extension","valueMoney":{"code":"USD","system":"urn:iso:std:iso:4217","value":0}},{"url":"https://bluebutton.cms.gov/assets/ig/StructureDefinition-bluebutton-inpatient-fi-num-extension","valueIdentifier":{"system":"https://bluebutton.cms.gov/assets/ig/CodeSystem-fi-num","value":"002000"}}],"id":"dfe6da84-94d9-4a92-af96-4a80efbf7f7a","identifier":[{"system":"https://bluebutton.cms.gov/resources/variables/clm_id","value":"0a79cf42-b3c8-429b-80cc-b72fa294e562"},{"system":"https://bluebutton.cms.gov/resources/identifier/claim-group","value":"99999999999"}],"insurance":{"coverage":{"reference":"#coverage"}},"item":[{"extension":[{"url":"https://bluebutton.cms.gov/assets/ig/StructureDefinition-bluebutton-inpatient-rev-cntr-ndc-qty-extension","valueQuantity":{"value":0}}],"locationCodeableConcept":{"coding":[{"code":"21","display":"Inpatient Hospital","system":"https://bluebutton.cms.gov/resources/variables/line_place_of_srvc_cd"}]},"sequence":1}],"meta":{"lastUpdated":"2019-04-09T12:03:26.163860+00:00","profile":["https://bluebutton.cms.gov/assets/ig/StructureDefinition-bluebutton-inpatient-claim"],"versionId":"MTU1NDgxMTQwNjE2Mzg2MDAwMA"},"organization":{"identifier":{"value":"3c1a6594-2deb-4ff5-972a-a209361ec3eb"}},"patient":{"reference":"Patient/0accf4d2-156a-425c-8400-33c073a0f661"},"payment":{"amount":{"code":"USD","system":"urn:iso:std:iso:4217","value":0}},"provider":{"identifier":{"value":"26c419ce-a137-417b-90ef-8da89cacc8e3"}},"resourceType":"ExplanationOfBenefit","status":"active","totalCost":{"code":"USD","system":"urn:iso:std:iso:4217","value":125},"type":{"coding":[{"code":"71","display":"Local carrier non-durable medical equipment, prosthetics, orthotics, and supplies (DMEPOS) claim","system":"https://bluebutton.cms.gov/resources/variables/nch_clm_type_cd"},{"code":"CARRIER","display":"EOB Type","system":"https://bluebutton.cms.gov/resources/codesystem/eob-type"},{"code":"professional","display":"Claim Type","system":"http://hl7.org/fhir/ex-claimtype"},{"code":"O","display":"Part B physician/supplier claim record (processed by local carriers; can include DMEPOS services)","system":"https://bluebutton.cms.gov/resources/variables/nch_near_line_rec_ident_cd"}]}}},{"resource":{"billablePeriod":{"end":"2017-01-13T07:12:23-05:00","start":"2016-01-13T07:12:23-05:00"},"careTeam":[{"provider":{"identifier":{"system":"http://hl7.org/fhir/sid/us-npi","value":"99999999"}},"role":{"coding":[{"code":"primary","display":"Primary Care Practitioner","system":"http://hl7.org/fhir/claimcareteamrole"}]},"sequence":1}],"claim":{"reference":"Claim/a9f5b434-8f9b-43fc-a5dd-d6fefa3b5346"},"contained":[{"id":"1","intent":"order","recipient":[{"identifier":{"system":"http://hl7.org/fhir/sid/us-npi","value":"99999999"}}],"requester":{"agent":{"identifier":{"system":"http://hl7.org/fhir/sid/us-npi","value":"99999999"}}},"resourceType":"ReferralRequest","status":"completed","subject":{"reference":"Patient/0accf4d2-156a-425c-8400-33c073a0f661"}},{"id":"coverage","resourceType":"Coverage","type":{"text":"private"}}],"created":"2016-01-13T07:12:23-05:00","id":"e1812756-8c2f-4146-b086-87f9424bf2f1","identifier":[{"system":"https://bluebutton.cms.gov/resources/variables/clm_id","value":"a9f5b434-8f9b-43fc-a5dd-d6fefa3b5346"},{"system":"https://bluebutton.cms.gov/resources/identifier/claim-group","value":"99999999999"}],"insurance":{"coverage":{"reference":"#coverage"}},"item":[{"category":{"coding":[{"code":"1","display":"Medical care","system":"https://bluebutton.cms.gov/resources/variables/line_cms_type_srvc_cd"}]},"encounter":[{"reference":"Encounter/f86841dd-d9be-4b93-a4dd-0886f482c74d"}],"locationCodeableConcept":{"coding":[{"code":"21","display":"Inpatient Hospital","system":"https://bluebutton.cms.gov/resources/variables/line_place_of_srvc_cd"}]},"sequence":1,"servicedPeriod":{"end":"2016-01-13T07:12:23-05:00","start":"2016-01-13T06:57:23-05:00"}}],"meta":{"lastUpdated":"2019-04-09T12:03:33.405485+00:00","versionId":"MTU1NDgxMTQxMzQwNTQ4NTAwMA"},"organization":{"identifier":{"value":"057e5b30-6566-4cff-80cc-1e899ab80bae"}},"patient":{"reference":"Patient/0accf4d2-156a-425c-8400-33c073a0f661"},"payment":{"amount":{"code":"USD","system":"urn:iso:std:iso:4217","value":0}},"provider":{"identifier":{"value":"4e75658e-2496-4900-a2a4-e8aa600269ed"}},"referral":{"reference":"#1"},"resourceType":"ExplanationOfBenefit","status":"active","totalCost":{"code":"USD","system":"urn:iso:std:iso:4217","value":125},"type":{"coding":[{"code":"71","display":"Local carrier non-durable medical equipment, prosthetics, orthotics, and supplies (DMEPOS) claim","system":"https://bluebutton.cms.gov/resources/variables/nch_clm_type_cd"},{"code":"CARRIER","display":"EOB Type","system":"https://bluebutton.cms.gov/resources/codesystem/eob-type"},{"code":"professional","display":"Claim Type","system":"http://hl7.org/fhir/ex-claimtype"},{"code":"O","display":"Part B physician/supplier claim record (processed by local carriers; can include DMEPOS services)","system":"https://bluebutton.cms.gov/resources/variables/nch_near_line_rec_ident_cd"}]}}},{"resource":{"billablePeriod":{"end":"2015-05-07T08:51:23-04:00","extension":[{"url":"https://bluebutton.cms.gov/assets/ig/StructureDefinition-bluebutton-inpatient-claim-query-cd-extension","valueCoding":{"code":"3","display":"Final Bill","system":"https://bluebutton.cms.gov/assets/ig/ValueSet-claim-query-cd"}}],"start":"2014-05-07T08:51:23-04:00"},"careTeam":[{"provider":{"identifier":{"system":"http://hl7.org/fhir/sid/us-npi","value":"99999999"}},"role":{"coding":[{"code":"primary","display":"Primary Care Practitioner","system":"http://hl7.org/fhir/claimcareteamrole"}]},"sequence":1}],"contained":[{"id":"coverage","resourceType":"Coverage","type":{"text":"private"}}],"extension":[{"url":"https://bluebutton.cms.gov/assets/ig/StructureDefinition-bluebutton-inpatient-ime-op-clm-val-amt-extension","valueMoney":{"code":"USD","system":"urn:iso:std:iso:4217","value":400}},{"url":"https://bluebutton.cms.gov/assets/ig/StructureDefinition-bluebutton-inpatient-dsh-op-clm-val-amt-extension","valueMoney":{"code":"USD","system":"urn:iso:std:iso:4217","value":0}},{"url":"https://bluebutton.cms.gov/assets/ig/StructureDefinition-bluebutton-inpatient-clm-pass-thru-per-diem-amt-extension","valueMoney":{"code":"USD","system":"urn:iso:std:iso:4217","value":0}},{"url":"https://bluebutton.cms.gov/assets/ig/StructureDefinition-bluebutton-inpatient-nch-profnl-cmpnt-chrg-amt-extension","valueMoney":{"code":"USD","system":"urn:iso:std:iso:4217","value":0}},{"url":"https://bluebutton.cms.gov/assets/ig/StructureDefinition-bluebutton-inpatient-clm-tot-pps-cptl-amt-extension","valueMoney":{"code":"USD","system":"urn:iso:std:iso:4217","value":0}},{"url":"https://bluebutton.cms.gov/assets/ig/StructureDefinition-bluebutton-inpatient-nch-bene-ip-ddctbl-amt-extension","valueMoney":{"code":"USD","system":"urn:iso:std:iso:4217","value":0}},{"url":"https://bluebutton.cms.gov/assets/ig/StructureDefinition-bluebutton-inpatient-nch-bene-pta-coinsrnc-lblty-amt-extension","valueMoney":{"code":"USD","system":"urn:iso:std:iso:4217","value":0}},{"url":"https://bluebutton.cms.gov/assets/ig/StructureDefinition-bluebutton-inpatient-nch-ip-ncvrd-chrg-amt-extension","valueMoney":{"code":"USD","system":"urn:iso:std:iso:4217","value":0}},{"url":"https://bluebutton.cms.gov/assets/ig/StructureDefinition-bluebutton-inpatient-nch-ip-tot-ddctn-amt-extension","valueMoney":{"code":"USD","system":"urn:iso:std:iso:4217","value":0}},{"url":"https://bluebutton.cms.gov/assets/ig/StructureDefinition-bluebutton-inpatient-clm-pps-cptl-dsprprtnt-shr-amt-extension","valueMoney":{"code":"USD","system":"urn:iso:std:iso:4217","value":0}},{"url":"https://bluebutton.cms.gov/assets/ig/StructureDefinition-bluebutton-inpatient-clm-pps-cptl-excptn-amt-extension","valueMoney":{"code":"USD","system":"urn:iso:std:iso:4217","value":0}},{"url":"https://bluebutton.cms.gov/assets/ig/StructureDefinition-bluebutton-inpatient-clm-pps-cptl-fsp-amt-extension","valueMoney":{"code":"USD","system":"urn:iso:std:iso:4217","value":0}},{"url":"https://bluebutton.cms.gov/assets/ig/StructureDefinition-bluebutton-inpatient-clm-pps-cptl-ime-amt-extension","valueMoney":{"code":"USD","system":"urn:iso:std:iso:4217","value":400}},{"url":"https://bluebutton.cms.gov/assets/ig/StructureDefinition-bluebutton-inpatient-clm-pps-cptl-outlier-amt-extension","valueMoney":{"code":"USD","system":"urn:iso:std:iso:4217","value":0}},{"url":"https://bluebutton.cms.gov/assets/ig/StructureDefinition-bluebutton-inpatient-clm-pps-old-cptl-hld-hrmls-amt-extension","valueMoney":{"code":"USD","system":"urn:iso:std:iso:4217","value":0}},{"url":"https://bluebutton.cms.gov/assets/ig/StructureDefinition-bluebutton-inpatient-nch-drg-outlier-aprvd-pmt-amt-extension","valueMoney":{"code":"USD","system":"urn:iso:std:iso:4217","value":0}},{"url":"https://bluebutton.cms.gov/assets/ig/StructureDefinition-bluebutton-inpatient-nch-bene-blood-ddctbl-lblty-am-extension","valueMoney":{"code":"USD","system":"urn:iso:std:iso:4217","value":0}},{"url":"https://bluebutton.cms.gov/assets/ig/StructureDefinition-bluebutton-inpatient-clm-mdcr-non-pmt-rsn-cd-extension","valueCoding":{"code":"N","display":"All other reasons for non-payment","system":"https://bluebutton.cms.gov/assets/ig/CodeSystem-clm-mdcr-non-pmt-rsn-cd"}},{"url":"https://bluebutton.cms.gov/assets/ig/StructureDefinition-bluebutton-inpatient-prpayamt-extension","valueMoney":{"code":"USD","system":"urn:iso:std:iso:4217","value":0}},{"url":"https://bluebutton.cms.gov/assets/ig/StructureDefinition-bluebutton-inpatient-fi-num-extension","valueIdentifier":{"system":"https://bluebutton.cms.gov/assets/ig/CodeSystem-fi-num","value":"002000"}}],"id":"e8b18a71-6462-4721-a6f2-3c0a57ddac4e","identifier":[{"system":"https://bluebutton.cms.gov/resources/variables/clm_id","value":"b00d92c5-5238-4301-b1d7-1b440cdcf9d1"},{"system":"https://bluebutton.cms.gov/resources/identifier/claim-group","value":"99999999999"}],"insurance":{"coverage":{"reference":"#coverage"}},"item":[{"extension":[{"url":"https://bluebutton.cms.gov/assets/ig/StructureDefinition-bluebutton-inpatient-rev-cntr-ndc-qty-extension","valueQuantity":{"value":0}}],"locationCodeableConcept":{"coding":[{"code":"21","display":"Inpatient Hospital","system":"https://bluebutton.cms.gov/resources/variables/line_place_of_srvc_cd"}]},"sequence":1},{"adjudication":[{"amount":{"code":"USD","system":"urn:iso:std:iso:4217","value":2929.666},"category":{"coding":[{"code":"https://bluebutton.cms.gov/resources/variables/line_coinsrnc_amt","display":"Line Beneficiary Coinsurance Amount","system":"https://bluebutton.cms.gov/resources/codesystem/adjudication"}]}},{"amount":{"code":"USD","system":"urn:iso:std:iso:4217","value":11718.664},"category":{"coding":[{"code":"https://bluebutton.cms.gov/resources/variables/line_prvdr_pmt_amt","display":"Line Provider Payment Amount","system":"https://bluebutton.cms.gov/resources/codesystem/adjudication"}]}},{"amount":{"code":"USD","system":"urn:iso:std:iso:4217","value":14648.33},"category":{"coding":[{"code":"https://bluebutton.cms.gov/resources/variables/line_sbmtd_chrg_amt","display":"Line Submitted Charge Amount","system":"https://bluebutton.cms.gov/resources/codesystem/adjudication"}]}},{"amount":{"code":"USD","system":"urn:iso:std:iso:4217","value":14648.33},"category":{"coding":[{"code":"https://bluebutton.cms.gov/resources/variables/line_alowd_chrg_amt","display":"Line Allowed Charge Amount","system":"https://bluebutton.cms.gov/resources/codesystem/adjudication"}]}},{"amount":{"code":"USD","system":"urn:iso:std:iso:4217","value":0},"category":{"coding":[{"code":"https://bluebutton.cms.gov/resources/variables/line_bene_ptb_ddctbl_amt","display":"Line Beneficiary Part B Deductible Amount","system":"https://bluebutton.cms.gov/resources/codesystem/adjudication"}]}},{"category":{"coding":[{"code":"https://bluebutton.cms.gov/resources/variables/line_prcsg_ind_cd","display":"Line Processing Indicator Code","system":"https://bluebutton.cms.gov/resources/codesystem/adjudication"}]}}],"extension":[{"url":"https://bluebutton.cms.gov/assets/ig/StructureDefinition-bluebutton-inpatient-rev-cntr-ndc-qty-extension","valueQuantity":{"value":0}}],"locationCodeableConcept":{"coding":[{"code":"21","display":"Inpatient Hospital","system":"https://bluebutton.cms.gov/resources/variables/line_place_of_srvc_cd"}]},"sequence":2,"service":{"coding":[{"code":"73761001","system":"http://snomed.info/sct","version":"v1"}]}}],"meta":{"lastUpdated":"2019-04-09T12:03:32.364109+00:00","profile":["https://bluebutton.cms.gov/assets/ig/StructureDefinition-bluebutton-inpatient-claim"],"versionId":"MTU1NDgxMTQxMjM2NDEwOTAwMA"},"organization":{"identifier":{"value":"3c1a6594-2deb-4ff5-972a-a209361ec3eb"}},"patient":{"reference":"Patient/0accf4d2-156a-425c-8400-33c073a0f661"},"payment":{"amount":{"code":"USD","system":"urn:iso:std:iso:4217","value":11718.664}},"provider":{"identifier":{"value":"26c419ce-a137-417b-90ef-8da89cacc8e3"}},"resourceType":"ExplanationOfBenefit","status":"active","totalCost":{"code":"USD","system":"urn:iso:std:iso:4217","value":14773.33},"type":{"coding":[{"code":"71","display":"Local carrier non-durable medical equipment, prosthetics, orthotics, and supplies (DMEPOS) claim","system":"https://bluebutton.cms.gov/resources/variables/nch_clm_type_cd"},{"code":"CARRIER","display":"EOB Type","system":"https://bluebutton.cms.gov/resources/codesystem/eob-type"},{"code":"professional","display":"Claim Type","system":"http://hl7.org/fhir/ex-claimtype"},{"code":"O","display":"Part B physician/supplier claim record (processed by local carriers; can include DMEPOS services)","system":"https://bluebutton.cms.gov/resources/variables/nch_near_line_rec_ident_cd"}]}}},{"resource":{"billablePeriod":{"end":"2017-01-24T07:12:23-05:00","extension":[{"url":"https://bluebutton.cms.gov/assets/ig/StructureDefinition-bluebutton-inpatient-claim-query-cd-extension","valueCoding":{"code":"3","display":"Final Bill","system":"https://bluebutton.cms.gov/assets/ig/ValueSet-claim-query-cd"}}],"start":"2016-01-24T07:12:23-05:00"},"careTeam":[{"provider":{"identifier":{"system":"http://hl7.org/fhir/sid/us-npi","value":"99999999"}},"role":{"coding":[{"code":"primary","display":"Primary Care Practitioner","system":"http://hl7.org/fhir/claimcareteamrole"}]},"sequence":1}],"contained":[{"id":"coverage","resourceType":"Coverage","type":{"text":"private"}}],"diagnosis":[{"diagnosisReference":{"reference":"Condition/7a9bb97f-a342-4da0-8549-7ee80060d885"},"extension":[{"url":"https://bluebutton.cms.gov/assets/ig/StructureDefinition-bluebutton-inpatient-clm-poa-ind-sw1-extension","valueCoding":{"code":"Y","display":"Diagnosis present at time of admission","system":"https://bluebutton.cms.gov/assets/ig/CodeSystem-clm-poa-ind-sw1"}}],"sequence":1,"type":[{"coding":[{"code":"principal","system":"https://bluebutton.cms.gov/resources/codesystem/diagnosis-type"}]}]}],"extension":[{"url":"https://bluebutton.cms.gov/assets/ig/StructureDefinition-bluebutton-inpatient-ime-op-clm-val-amt-extension","valueMoney":{"code":"USD","system":"urn:iso:std:iso:4217","value":400}},{"url":"https://bluebutton.cms.gov/assets/ig/StructureDefinition-bluebutton-inpatient-dsh-op-clm-val-amt-extension","valueMoney":{"code":"USD","system":"urn:iso:std:iso:4217","value":0}},{"url":"https://bluebutton.cms.gov/assets/ig/StructureDefinition-bluebutton-inpatient-clm-pass-thru-per-diem-amt-extension","valueMoney":{"code":"USD","system":"urn:iso:std:iso:4217","value":0}},{"url":"https://bluebutton.cms.gov/assets/ig/StructureDefinition-bluebutton-inpatient-nch-profnl-cmpnt-chrg-amt-extension","valueMoney":{"code":"USD","system":"urn:iso:std:iso:4217","value":0}},{"url":"https://bluebutton.cms.gov/assets/ig/StructureDefinition-bluebutton-inpatient-clm-tot-pps-cptl-amt-extension","valueMoney":{"code":"USD","system":"urn:iso:std:iso:4217","value":0}},{"url":"https://bluebutton.cms.gov/assets/ig/StructureDefinition-bluebutton-inpatient-nch-bene-ip-ddctbl-amt-extension","valueMoney":{"code":"USD","system":"urn:iso:std:iso:4217","value":0}},{"url":"https://bluebutton.cms.gov/assets/ig/StructureDefinition-bluebutton-inpatient-nch-bene-pta-coinsrnc-lblty-amt-extension","valueMoney":{"code":"USD","system":"urn:iso:std:iso:4217","value":0}},{"url":"https://bluebutton.cms.gov/assets/ig/StructureDefinition-bluebutton-inpatient-nch-ip-ncvrd-chrg-amt-extension","valueMoney":{"code":"USD","system":"urn:iso:std:iso:4217","value":0}},{"url":"https://bluebutton.cms.gov/assets/ig/StructureDefinition-bluebutton-inpatient-nch-ip-tot-ddctn-amt-extension","valueMoney":{"code":"USD","system":"urn:iso:std:iso:4217","value":0}},{"url":"https://bluebutton.cms.gov/assets/ig/StructureDefinition-bluebutton-inpatient-clm-pps-cptl-dsprprtnt-shr-amt-extension","valueMoney":{"code":"USD","system":"urn:iso:std:iso:4217","value":0}},{"url":"https://bluebutton.cms.gov/assets/ig/StructureDefinition-bluebutton-inpatient-clm-pps-cptl-excptn-amt-extension","valueMoney":{"code":"USD","system":"urn:iso:std:iso:4217","value":0}},{"url":"https://bluebutton.cms.gov/assets/ig/StructureDefinition-bluebutton-inpatient-clm-pps-cptl-fsp-amt-extension","valueMoney":{"code":"USD","system":"urn:iso:std:iso:4217","value":0}},{"url":"https://bluebutton.cms.gov/assets/ig/StructureDefinition-bluebutton-inpatient-clm-pps-cptl-ime-amt-extension","valueMoney":{"code":"USD","system":"urn:iso:std:iso:4217","value":400}},{"url":"https://bluebutton.cms.gov/assets/ig/StructureDefinition-bluebutton-inpatient-clm-pps-cptl-outlier-amt-extension","valueMoney":{"code":"USD","system":"urn:iso:std:iso:4217","value":0}},{"url":"https://bluebutton.cms.gov/assets/ig/StructureDefinition-bluebutton-inpatient-clm-pps-old-cptl-hld-hrmls-amt-extension","valueMoney":{"code":"USD","system":"urn:iso:std:iso:4217","value":0}},{"url":"https://bluebutton.cms.gov/assets/ig/StructureDefinition-bluebutton-inpatient-nch-drg-outlier-aprvd-pmt-amt-extension","valueMoney":{"code":"USD","system":"urn:iso:std:iso:4217","value":0}},{"url":"https://bluebutton.cms.gov/assets/ig/StructureDefinition-bluebutton-inpatient-nch-bene-blood-ddctbl-lblty-am-extension","valueMoney":{"code":"USD","system":"urn:iso:std:iso:4217","value":0}},{"url":"https://bluebutton.cms.gov/assets/ig/StructureDefinition-bluebutton-inpatient-clm-mdcr-non-pmt-rsn-cd-extension","valueCoding":{"code":"N","display":"All other reasons for non-payment","system":"https://bluebutton.cms.gov/assets/ig/CodeSystem-clm-mdcr-non-pmt-rsn-cd"}},{"url":"https://bluebutton.cms.gov/assets/ig/StructureDefinition-bluebutton-inpatient-prpayamt-extension","valueMoney":{"code":"USD","system":"urn:iso:std:iso:4217","value":0}},{"url":"https://bluebutton.cms.gov/assets/ig/StructureDefinition-bluebutton-inpatient-fi-num-extension","valueIdentifier":{"system":"https://bluebutton.cms.gov/assets/ig/CodeSystem-fi-num","value":"002000"}}],"id":"e9ec9342-2c05-46bd-ae75-b186ba333962","identifier":[{"system":"https://bluebutton.cms.gov/resources/variables/clm_id","value":"7c763264-c03c-4afd-a597-b317f0103f3e"},{"system":"https://bluebutton.cms.gov/resources/identifier/claim-group","value":"99999999999"}],"insurance":{"coverage":{"reference":"#coverage"}},"item":[{"extension":[{"url":"https://bluebutton.cms.gov/assets/ig/StructureDefinition-bluebutton-inpatient-rev-cntr-ndc-qty-extension","valueQuantity":{"value":0}}],"locationCodeableConcept":{"coding":[{"code":"21","display":"Inpatient Hospital","system":"https://bluebutton.cms.gov/resources/variables/line_place_of_srvc_cd"}]},"sequence":1},{"extension":[{"url":"https://bluebutton.cms.gov/assets/ig/StructureDefinition-bluebutton-inpatient-rev-cntr-ndc-qty-extension","valueQuantity":{"value":0}}],"locationCodeableConcept":{"coding":[{"code":"21","display":"Inpatient Hospital","system":"https://bluebutton.cms.gov/resources/variables/line_place_of_srvc_cd"}]},"sequence":2}],"meta":{"lastUpdated":"2019-04-09T12:03:34.436611+00:00","profile":["https://bluebutton.cms.gov/assets/ig/StructureDefinition-bluebutton-inpatient-claim"],"versionId":"MTU1NDgxMTQxNDQzNjYxMTAwMA"},"organization":{"identifier":{"value":"3c1a6594-2deb-4ff5-972a-a209361ec3eb"}},"patient":{"reference":"Patient/0accf4d2-156a-425c-8400-33c073a0f661"},"payment":{"amount":{"code":"USD","system":"urn:iso:std:iso:4217","value":0}},"provider":{"identifier":{"value":"26c419ce-a137-417b-90ef-8da89cacc8e3"}},"resourceType":"ExplanationOfBenefit","status":"active","totalCost":{"code":"USD","system":"urn:iso:std:iso:4217","value":125},"type":{"coding":[{"code":"71","display":"Local carrier non-durable medical equipment, prosthetics, orthotics, and supplies (DMEPOS) claim","system":"https://bluebutton.cms.gov/resources/variables/nch_clm_type_cd"},{"code":"CARRIER","display":"EOB Type","system":"https://bluebutton.cms.gov/resources/codesystem/eob-type"},{"code":"professional","display":"Claim Type","system":"http://hl7.org/fhir/ex-claimtype"},{"code":"O","display":"Part B physician/supplier claim record (processed by local carriers; can include DMEPOS services)","system":"https://bluebutton.cms.gov/resources/variables/nch_near_line_rec_ident_cd"}]}}},{"resource":{"billablePeriod":{"end":"2013-10-03T08:12:23-04:00","start":"2012-10-03T08:12:23-04:00"},"careTeam":[{"provider":{"identifier":{"system":"http://hl7.org/fhir/sid/us-npi","value":"99999999"}},"role":{"coding":[{"code":"primary","display":"Primary Care Practitioner","system":"http://hl7.org/fhir/claimcareteamrole"}]},"sequence":1}],"claim":{"reference":"Claim/8b45497a-456a-4fd0-ac53-2a27b5786575"},"contained":[{"id":"1","intent":"order","recipient":[{"identifier":{"system":"http://hl7.org/fhir/sid/us-npi","value":"99999999"}}],"requester":{"agent":{"identifier":{"system":"http://hl7.org/fhir/sid/us-npi","value":"99999999"}}},"resourceType":"ReferralRequest","status":"completed","subject":{"reference":"Patient/0accf4d2-156a-425c-8400-33c073a0f661"}},{"id":"coverage","resourceType":"Coverage","type":{"text":"private"}}],"created":"2012-10-03T08:12:23-04:00","id":"ee9791c0-ab59-4780-a50f-5f29313db3dd","identifier":[{"system":"https://bluebutton.cms.gov/resources/variables/clm_id","value":"8b45497a-456a-4fd0-ac53-2a27b5786575"},{"system":"https://bluebutton.cms.gov/resources/identifier/claim-group","value":"99999999999"}],"insurance":{"coverage":{"reference":"#coverage"}},"item":[{"category":{"coding":[{"code":"1","display":"Medical care","system":"https://bluebutton.cms.gov/resources/variables/line_cms_type_srvc_cd"}]},"encounter":[{"reference":"Encounter/ab643349-14ef-4e2f-92ea-f9e2ec1972c0"}],"locationCodeableConcept":{"coding":[{"code":"21","display":"Inpatient Hospital","system":"https://bluebutton.cms.gov/resources/variables/line_place_of_srvc_cd"}]},"sequence":1,"servicedPeriod":{"end":"2012-10-03T08:12:23-04:00","start":"2012-10-03T07:57:23-04:00"}}],"meta":{"lastUpdated":"2019-04-09T12:03:29.360070+00:00","versionId":"MTU1NDgxMTQwOTM2MDA3MDAwMA"},"organization":{"identifier":{"value":"057e5b30-6566-4cff-80cc-1e899ab80bae"}},"patient":{"reference":"Patient/0accf4d2-156a-425c-8400-33c073a0f661"},"payment":{"amount":{"code":"USD","system":"urn:iso:std:iso:4217","value":0}},"provider":{"identifier":{"value":"4e75658e-2496-4900-a2a4-e8aa600269ed"}},"referral":{"reference":"#1"},"resourceType":"ExplanationOfBenefit","status":"active","totalCost":{"code":"USD","system":"urn:iso:std:iso:4217","value":125},"type":{"coding":[{"code":"71","display":"Local carrier non-durable medical equipment, prosthetics, orthotics, and supplies (DMEPOS) claim","system":"https://bluebutton.cms.gov/resources/variables/nch_clm_type_cd"},{"code":"CARRIER","display":"EOB Type","system":"https://bluebutton.cms.gov/resources/codesystem/eob-type"},{"code":"professional","display":"Claim Type","system":"http://hl7.org/fhir/ex-claimtype"},{"code":"O","display":"Part B physician/supplier claim record (processed by local carriers; can include DMEPOS services)","system":"https://bluebutton.cms.gov/resources/variables/nch_near_line_rec_ident_cd"}]}}},{"resource":{"billablePeriod":{"end":"2016-07-15T08:12:23-04:00","start":"2015-07-15T08:12:23-04:00"},"careTeam":[{"provider":{"identifier":{"system":"http://hl7.org/fhir/sid/us-npi","value":"99999999"}},"role":{"coding":[{"code":"primary","display":"Primary Care Practitioner","system":"http://hl7.org/fhir/claimcareteamrole"}]},"sequence":1}],"claim":{"reference":"Claim/aee30dce-b23f-4e9c-8613-ddfa2975fcf4"},"contained":[{"id":"1","intent":"order","recipient":[{"identifier":{"system":"http://hl7.org/fhir/sid/us-npi","value":"99999999"}}],"requester":{"agent":{"identifier":{"system":"http://hl7.org/fhir/sid/us-npi","value":"99999999"}}},"resourceType":"ReferralRequest","status":"completed","subject":{"reference":"Patient/0accf4d2-156a-425c-8400-33c073a0f661"}},{"id":"coverage","resourceType":"Coverage","type":{"text":"private"}}],"created":"2015-07-15T08:12:23-04:00","id":"ef9e6a75-ce47-4a98-919b-6a7473f2b656","identifier":[{"system":"https://bluebutton.cms.gov/resources/variables/clm_id","value":"aee30dce-b23f-4e9c-8613-ddfa2975fcf4"},{"system":"https://bluebutton.cms.gov/resources/identifier/claim-group","value":"99999999999"}],"insurance":{"coverage":{"reference":"#coverage"}},"item":[{"category":{"coding":[{"code":"1","display":"Medical care","system":"https://bluebutton.cms.gov/resources/variables/line_cms_type_srvc_cd"}]},"encounter":[{"reference":"Encounter/e7f47e1e-b826-460c-bb1c-bd55f4635d59"}],"locationCodeableConcept":{"coding":[{"code":"21","display":"Inpatient Hospital","system":"https://bluebutton.cms.gov/resources/variables/line_place_of_srvc_cd"}]},"sequence":1,"servicedPeriod":{"end":"2015-07-15T08:12:23-04:00","start":"2015-07-15T07:57:23-04:00"}}],"meta":{"lastUpdated":"2019-04-09T12:03:33.408249+00:00","versionId":"MTU1NDgxMTQxMzQwODI0OTAwMA"},"organization":{"identifier":{"value":"057e5b30-6566-4cff-80cc-1e899ab80bae"}},"patient":{"reference":"Patient/0accf4d2-156a-425c-8400-33c073a0f661"},"payment":{"amount":{"code":"USD","system":"urn:iso:std:iso:4217","value":0}},"provider":{"identifier":{"value":"4e75658e-2496-4900-a2a4-e8aa600269ed"}},"referral":{"reference":"#1"},"resourceType":"ExplanationOfBenefit","status":"active","totalCost":{"code":"USD","system":"urn:iso:std:iso:4217","value":125},"type":{"coding":[{"code":"71","display":"Local carrier non-durable medical equipment, prosthetics, orthotics, and supplies (DMEPOS) claim","system":"https://bluebutton.cms.gov/resources/variables/nch_clm_type_cd"},{"code":"CARRIER","display":"EOB Type","system":"https://bluebutton.cms.gov/resources/codesystem/eob-type"},{"code":"professional","display":"Claim Type","system":"http://hl7.org/fhir/ex-claimtype"},{"code":"O","display":"Part B physician/supplier claim record (processed by local carriers; can include DMEPOS services)","system":"https://bluebutton.cms.gov/resources/variables/nch_near_line_rec_ident_cd"}]}}},{"resource":{"billablePeriod":{"end":"2013-02-01T07:12:23-05:00","start":"2012-02-01T07:12:23-05:00"},"careTeam":[{"provider":{"identifier":{"system":"http://hl7.org/fhir/sid/us-npi","value":"99999999"}},"role":{"coding":[{"code":"primary","display":"Primary Care Practitioner","system":"http://hl7.org/fhir/claimcareteamrole"}]},"sequence":1}],"claim":{"reference":"Claim/9243df45-094c-4d4e-9258-71fb4e5c3e81"},"contained":[{"id":"1","intent":"order","recipient":[{"identifier":{"system":"http://hl7.org/fhir/sid/us-npi","value":"99999999"}}],"requester":{"agent":{"identifier":{"system":"http://hl7.org/fhir/sid/us-npi","value":"99999999"}}},"resourceType":"ReferralRequest","status":"completed","subject":{"reference":"Patient/0accf4d2-156a-425c-8400-33c073a0f661"}},{"id":"coverage","resourceType":"Coverage","type":{"text":"private"}}],"created":"2012-02-01T07:12:23-05:00","id":"f47cb76a-ed92-4aad-a5c7-eb976ccd9269","identifier":[{"system":"https://bluebutton.cms.gov/resources/variables/clm_id","value":"9243df45-094c-4d4e-9258-71fb4e5c3e81"},{"system":"https://bluebutton.cms.gov/resources/identifier/claim-group","value":"99999999999"}],"insurance":{"coverage":{"reference":"#coverage"}},"item":[{"category":{"coding":[{"code":"1","display":"Medical care","system":"https://bluebutton.cms.gov/resources/variables/line_cms_type_srvc_cd"}]},"encounter":[{"reference":"Encounter/23df6fcc-4cb0-41ad-8ee5-dc9f35e8f02a"}],"locationCodeableConcept":{"coding":[{"code":"21","display":"Inpatient Hospital","system":"https://bluebutton.cms.gov/resources/variables/line_place_of_srvc_cd"}]},"sequence":1,"servicedPeriod":{"end":"2012-02-01T07:12:23-05:00","start":"2012-02-01T06:57:23-05:00"}}],"meta":{"lastUpdated":"2019-04-09T12:03:28.304302+00:00","versionId":"MTU1NDgxMTQwODMwNDMwMjAwMA"},"organization":{"identifier":{"value":"3c1a6594-2deb-4ff5-972a-a209361ec3eb"}},"patient":{"reference":"Patient/0accf4d2-156a-425c-8400-33c073a0f661"},"payment":{"amount":{"code":"USD","system":"urn:iso:std:iso:4217","value":0}},"provider":{"identifier":{"value":"26c419ce-a137-417b-90ef-8da89cacc8e3"}},"referral":{"reference":"#1"},"resourceType":"ExplanationOfBenefit","status":"active","totalCost":{"code":"USD","system":"urn:iso:std:iso:4217","value":125},"type":{"coding":[{"code":"71","display":"Local carrier non-durable medical equipment, prosthetics, orthotics, and supplies (DMEPOS) claim","system":"https://bluebutton.cms.gov/resources/variables/nch_clm_type_cd"},{"code":"CARRIER","display":"EOB Type","system":"https://bluebutton.cms.gov/resources/codesystem/eob-type"},{"code":"professional","display":"Claim Type","system":"http://hl7.org/fhir/ex-claimtype"},{"code":"O","display":"Part B physician/supplier claim record (processed by local carriers; can include DMEPOS services)","system":"https://bluebutton.cms.gov/resources/variables/nch_near_line_rec_ident_cd"}]}}},{"resource":{"billablePeriod":{"end":"2016-02-25T07:12:23-05:00","start":"2015-02-25T07:12:23-05:00"},"careTeam":[{"provider":{"identifier":{"system":"http://hl7.org/fhir/sid/us-npi","value":"99999999"}},"role":{"coding":[{"code":"primary","display":"Primary Care Practitioner","system":"http://hl7.org/fhir/claimcareteamrole"}]},"sequence":1}],"claim":{"reference":"Claim/9af26efb-60f3-41b6-821e-f7244a06016a"},"contained":[{"id":"1","intent":"order","recipient":[{"identifier":{"system":"http://hl7.org/fhir/sid/us-npi","value":"99999999"}}],"requester":{"agent":{"identifier":{"system":"http://hl7.org/fhir/sid/us-npi","value":"99999999"}}},"resourceType":"ReferralRequest","status":"completed","subject":{"reference":"Patient/0accf4d2-156a-425c-8400-33c073a0f661"}},{"id":"coverage","resourceType":"Coverage","type":{"text":"private"}}],"created":"2015-02-25T07:12:23-05:00","id":"f4b5bdd4-ba27-4e65-9d5c-695e138829d0","identifier":[{"system":"https://bluebutton.cms.gov/resources/variables/clm_id","value":"9af26efb-60f3-41b6-821e-f7244a06016a"},{"system":"https://bluebutton.cms.gov/resources/identifier/claim-group","value":"99999999999"}],"insurance":{"coverage":{"reference":"#coverage"}},"item":[{"category":{"coding":[{"code":"1","display":"Medical care","system":"https://bluebutton.cms.gov/resources/variables/line_cms_type_srvc_cd"}]},"encounter":[{"reference":"Encounter/c871699c-6149-4fff-b0e3-59e3c5ec87b0"}],"locationCodeableConcept":{"coding":[{"code":"21","display":"Inpatient Hospital","system":"https://bluebutton.cms.gov/resources/variables/line_place_of_srvc_cd"}]},"sequence":1,"servicedPeriod":{"end":"2015-02-25T07:12:23-05:00","start":"2015-02-25T06:57:23-05:00"}}],"meta":{"lastUpdated":"2019-04-09T12:03:33.392809+00:00","versionId":"MTU1NDgxMTQxMzM5MjgwOTAwMA"},"organization":{"identifier":{"value":"3c1a6594-2deb-4ff5-972a-a209361ec3eb"}},"patient":{"reference":"Patient/0accf4d2-156a-425c-8400-33c073a0f661"},"payment":{"amount":{"code":"USD","system":"urn:iso:std:iso:4217","value":0}},"provider":{"identifier":{"value":"26c419ce-a137-417b-90ef-8da89cacc8e3"}},"referral":{"reference":"#1"},"resourceType":"ExplanationOfBenefit","status":"active","totalCost":{"code":"USD","system":"urn:iso:std:iso:4217","value":125},"type":{"coding":[{"code":"71","display":"Local carrier non-durable medical equipment, prosthetics, orthotics, and supplies (DMEPOS) claim","system":"https://bluebutton.cms.gov/resources/variables/nch_clm_type_cd"},{"code":"CARRIER","display":"EOB Type","system":"https://bluebutton.cms.gov/resources/codesystem/eob-type"},{"code":"professional","display":"Claim Type","system":"http://hl7.org/fhir/ex-claimtype"},{"code":"O","display":"Part B physician/supplier claim record (processed by local carriers; can include DMEPOS services)","system":"https://bluebutton.cms.gov/resources/variables/nch_near_line_rec_ident_cd"}]}}},{"resource":{"billablePeriod":{"end":"2017-02-17T07:12:23-05:00","start":"2016-02-17T07:12:23-05:00"},"careTeam":[{"provider":{"identifier":{"system":"http://hl7.org/fhir/sid/us-npi","value":"99999999"}},"role":{"coding":[{"code":"primary","display":"Primary Care Practitioner","system":"http://hl7.org/fhir/claimcareteamrole"}]},"sequence":1}],"claim":{"reference":"Claim/38b719f7-7d5e-4fca-9254-6acef157d7bf"},"contained":[{"id":"1","intent":"order","recipient":[{"identifier":{"system":"http://hl7.org/fhir/sid/us-npi","value":"99999999"}}],"requester":{"agent":{"identifier":{"system":"http://hl7.org/fhir/sid/us-npi","value":"99999999"}}},"resourceType":"ReferralRequest","status":"completed","subject":{"reference":"Patient/0accf4d2-156a-425c-8400-33c073a0f661"}},{"id":"coverage","resourceType":"Coverage","type":{"text":"private"}}],"created":"2016-02-17T07:12:23-05:00","id":"fabf14ff-4e0b-4c9c-885d-4d5a09989a6c","identifier":[{"system":"https://bluebutton.cms.gov/resources/variables/clm_id","value":"38b719f7-7d5e-4fca-9254-6acef157d7bf"},{"system":"https://bluebutton.cms.gov/resources/identifier/claim-group","value":"99999999999"}],"insurance":{"coverage":{"reference":"#coverage"}},"item":[{"category":{"coding":[{"code":"1","display":"Medical care","system":"https://bluebutton.cms.gov/resources/variables/line_cms_type_srvc_cd"}]},"encounter":[{"reference":"Encounter/266b081c-d9b3-4e3d-bc1b-31bd3e7e8d64"}],"locationCodeableConcept":{"coding":[{"code":"21","display":"Inpatient Hospital","system":"https://bluebutton.cms.gov/resources/variables/line_place_of_srvc_cd"}]},"sequence":1,"servicedPeriod":{"end":"2016-02-17T07:12:23-05:00","start":"2016-02-17T06:57:23-05:00"}}],"meta":{"lastUpdated":"2019-04-09T12:03:34.435653+00:00","versionId":"MTU1NDgxMTQxNDQzNTY1MzAwMA"},"organization":{"identifier":{"value":"057e5b30-6566-4cff-80cc-1e899ab80bae"}},"patient":{"reference":"Patient/0accf4d2-156a-425c-8400-33c073a0f661"},"payment":{"amount":{"code":"USD","system":"urn:iso:std:iso:4217","value":0}},"provider":{"identifier":{"value":"4e75658e-2496-4900-a2a4-e8aa600269ed"}},"referral":{"reference":"#1"},"resourceType":"ExplanationOfBenefit","status":"active","totalCost":{"code":"USD","system":"urn:iso:std:iso:4217","value":125},"type":{"coding":[{"code":"71","display":"Local carrier non-durable medical equipment, prosthetics, orthotics, and supplies (DMEPOS) claim","system":"https://bluebutton.cms.gov/resources/variables/nch_clm_type_cd"},{"code":"CARRIER","display":"EOB Type","system":"https://bluebutton.cms.gov/resources/codesystem/eob-type"},{"code":"professional","display":"Claim Type","system":"http://hl7.org/fhir/ex-claimtype"},{"code":"O","display":"Part B physician/supplier claim record (processed by local carriers; can include DMEPOS services)","system":"https://bluebutton.cms.gov/resources/variables/nch_near_line_rec_ident_cd"}]}}},{"resource":{"billablePeriod":{"end":"2013-04-04T08:12:23-04:00","start":"2012-04-04T08:12:23-04:00"},"careTeam":[{"provider":{"identifier":{"system":"http://hl7.org/fhir/sid/us-npi","value":"99999999"}},"role":{"coding":[{"code":"primary","display":"Primary Care Practitioner","system":"http://hl7.org/fhir/claimcareteamrole"}]},"sequence":1}],"claim":{"reference":"Claim/a85e988b-62f1-4520-9fc4-37612ac5d6b5"},"contained":[{"id":"1","intent":"order","recipient":[{"identifier":{"system":"http://hl7.org/fhir/sid/us-npi","value":"99999999"}}],"requester":{"agent":{"identifier":{"system":"http://hl7.org/fhir/sid/us-npi","value":"99999999"}}},"resourceType":"ReferralRequest","status":"completed","subject":{"reference":"Patient/0accf4d2-156a-425c-8400-33c073a0f661"}},{"id":"coverage","resourceType":"Coverage","type":{"text":"private"}}],"created":"2012-04-04T08:12:23-04:00","id":"fb920f6c-7b8d-426d-abca-523614c59f35","identifier":[{"system":"https://bluebutton.cms.gov/resources/variables/clm_id","value":"a85e988b-62f1-4520-9fc4-37612ac5d6b5"},{"system":"https://bluebutton.cms.gov/resources/identifier/claim-group","value":"99999999999"}],"insurance":{"coverage":{"reference":"#coverage"}},"item":[{"category":{"coding":[{"code":"1","display":"Medical care","system":"https://bluebutton.cms.gov/resources/variables/line_cms_type_srvc_cd"}]},"encounter":[{"reference":"Encounter/eeee67b1-97ba-43db-8e17-7692c550f416"}],"locationCodeableConcept":{"coding":[{"code":"21","display":"Inpatient Hospital","system":"https://bluebutton.cms.gov/resources/variables/line_place_of_srvc_cd"}]},"sequence":1,"servicedPeriod":{"end":"2012-04-04T08:12:23-04:00","start":"2012-04-04T07:57:23-04:00"}}],"meta":{"lastUpdated":"2019-04-09T12:03:29.317924+00:00","versionId":"MTU1NDgxMTQwOTMxNzkyNDAwMA"},"organization":{"identifier":{"value":"3c1a6594-2deb-4ff5-972a-a209361ec3eb"}},"patient":{"reference":"Patient/0accf4d2-156a-425c-8400-33c073a0f661"},"payment":{"amount":{"code":"USD","system":"urn:iso:std:iso:4217","value":0}},"provider":{"identifier":{"value":"26c419ce-a137-417b-90ef-8da89cacc8e3"}},"referral":{"reference":"#1"},"resourceType":"ExplanationOfBenefit","status":"active","totalCost":{"code":"USD","system":"urn:iso:std:iso:4217","value":125},"type":{"coding":[{"code":"71","display":"Local carrier non-durable medical equipment, prosthetics, orthotics, and supplies (DMEPOS) claim","system":"https://bluebutton.cms.gov/resources/variables/nch_clm_type_cd"},{"code":"CARRIER","display":"EOB Type","system":"https://bluebutton.cms.gov/resources/codesystem/eob-type"},{"code":"professional","display":"Claim Type","system":"http://hl7.org/fhir/ex-claimtype"},{"code":"O","display":"Part B physician/supplier claim record (processed by local carriers; can include DMEPOS services)","system":"https://bluebutton.cms.gov/resources/variables/nch_near_line_rec_ident_cd"}]}}},{"resource":{"billablePeriod":{"end":"2017-02-10T07:57:23-05:00","start":"2016-02-10T07:57:23-05:00"},"careTeam":[{"provider":{"identifier":{"system":"http://hl7.org/fhir/sid/us-npi","value":"99999999"}},"role":{"coding":[{"code":"primary","display":"Primary Care Practitioner","system":"http://hl7.org/fhir/claimcareteamrole"}]},"sequence":1}],"claim":{"reference":"Claim/5c642e20-a1e5-465e-9ece-1501263f3d20"},"contained":[{"id":"1","intent":"order","recipient":[{"identifier":{"system":"http://hl7.org/fhir/sid/us-npi","value":"99999999"}}],"requester":{"agent":{"identifier":{"system":"http://hl7.org/fhir/sid/us-npi","value":"99999999"}}},"resourceType":"ReferralRequest","status":"completed","subject":{"reference":"Patient/0accf4d2-156a-425c-8400-33c073a0f661"}},{"id":"coverage","resourceType":"Coverage","type":{"text":"private"}}],"created":"2016-02-10T07:57:23-05:00","id":"fd118dff-6e46-419f-8b2f-f816fedf17d0","identifier":[{"system":"https://bluebutton.cms.gov/resources/variables/clm_id","value":"5c642e20-a1e5-465e-9ece-1501263f3d20"},{"system":"https://bluebutton.cms.gov/resources/identifier/claim-group","value":"99999999999"}],"insurance":{"coverage":{"reference":"#coverage"}},"item":[{"category":{"coding":[{"code":"1","display":"Medical care","system":"https://bluebutton.cms.gov/resources/variables/line_cms_type_srvc_cd"}]},"encounter":[{"reference":"Encounter/3882bae4-1e44-4bfa-9de8-c403d1acb7b2"}],"locationCodeableConcept":{"coding":[{"code":"21","display":"Inpatient Hospital","system":"https://bluebutton.cms.gov/resources/variables/line_place_of_srvc_cd"}]},"sequence":1,"servicedPeriod":{"end":"2016-02-10T07:57:23-05:00","start":"2016-02-10T06:57:23-05:00"}}],"meta":{"lastUpdated":"2019-04-09T12:03:34.442325+00:00","versionId":"MTU1NDgxMTQxNDQ0MjMyNTAwMA"},"organization":{"identifier":{"value":"3c1a6594-2deb-4ff5-972a-a209361ec3eb"}},"patient":{"reference":"Patient/0accf4d2-156a-425c-8400-33c073a0f661"},"payment":{"amount":{"code":"USD","system":"urn:iso:std:iso:4217","value":0}},"provider":{"identifier":{"value":"26c419ce-a137-417b-90ef-8da89cacc8e3"}},"referral":{"reference":"#1"},"resourceType":"ExplanationOfBenefit","status":"active","totalCost":{"code":"USD","system":"urn:iso:std:iso:4217","value":125},"type":{"coding":[{"code":"71","display":"Local carrier non-durable medical equipment, prosthetics, orthotics, and supplies (DMEPOS) claim","system":"https://bluebutton.cms.gov/resources/variables/nch_clm_type_cd"},{"code":"CARRIER","display":"EOB Type","system":"https://bluebutton.cms.gov/resources/codesystem/eob-type"},{"code":"professional","display":"Claim Type","system":"http://hl7.org/fhir/ex-claimtype"},{"code":"O","display":"Part B physician/supplier claim record (processed by local carriers; can include DMEPOS services)","system":"https://bluebutton.cms.gov/resources/variables/nch_near_line_rec_ident_cd"}]}}},{"resource":{"billablePeriod":{"end":"2016-01-31T07:12:23-05:00","extension":[{"url":"https://bluebutton.cms.gov/assets/ig/StructureDefinition-bluebutton-inpatient-claim-query-cd-extension","valueCoding":{"code":"3","display":"Final Bill","system":"https://bluebutton.cms.gov/assets/ig/ValueSet-claim-query-cd"}}],"start":"2015-01-31T07:12:23-05:00"},"careTeam":[{"provider":{"identifier":{"system":"http://hl7.org/fhir/sid/us-npi","value":"99999999"}},"role":{"coding":[{"code":"primary","display":"Primary Care Practitioner","system":"http://hl7.org/fhir/claimcareteamrole"}]},"sequence":1}],"contained":[{"id":"coverage","resourceType":"Coverage","type":{"text":"private"}}],"diagnosis":[{"diagnosisReference":{"reference":"Condition/60d48c64-2c71-422d-8e82-15619a883d33"},"extension":[{"url":"https://bluebutton.cms.gov/assets/ig/StructureDefinition-bluebutton-inpatient-clm-poa-ind-sw1-extension","valueCoding":{"code":"Y","display":"Diagnosis present at time of admission","system":"https://bluebutton.cms.gov/assets/ig/CodeSystem-clm-poa-ind-sw1"}}],"sequence":1,"type":[{"coding":[{"code":"principal","system":"https://bluebutton.cms.gov/resources/codesystem/diagnosis-type"}]}]}],"extension":[{"url":"https://bluebutton.cms.gov/assets/ig/StructureDefinition-bluebutton-inpatient-ime-op-clm-val-amt-extension","valueMoney":{"code":"USD","system":"urn:iso:std:iso:4217","value":400}},{"url":"https://bluebutton.cms.gov/assets/ig/StructureDefinition-bluebutton-inpatient-dsh-op-clm-val-amt-extension","valueMoney":{"code":"USD","system":"urn:iso:std:iso:4217","value":0}},{"url":"https://bluebutton.cms.gov/assets/ig/StructureDefinition-bluebutton-inpatient-clm-pass-thru-per-diem-amt-extension","valueMoney":{"code":"USD","system":"urn:iso:std:iso:4217","value":0}},{"url":"https://bluebutton.cms.gov/assets/ig/StructureDefinition-bluebutton-inpatient-nch-profnl-cmpnt-chrg-amt-extension","valueMoney":{"code":"USD","system":"urn:iso:std:iso:4217","value":0}},{"url":"https://bluebutton.cms.gov/assets/ig/StructureDefinition-bluebutton-inpatient-clm-tot-pps-cptl-amt-extension","valueMoney":{"code":"USD","system":"urn:iso:std:iso:4217","value":0}},{"url":"https://bluebutton.cms.gov/assets/ig/StructureDefinition-bluebutton-inpatient-nch-bene-ip-ddctbl-amt-extension","valueMoney":{"code":"USD","system":"urn:iso:std:iso:4217","value":0}},{"url":"https://bluebutton.cms.gov/assets/ig/StructureDefinition-bluebutton-inpatient-nch-bene-pta-coinsrnc-lblty-amt-extension","valueMoney":{"code":"USD","system":"urn:iso:std:iso:4217","value":0}},{"url":"https://bluebutton.cms.gov/assets/ig/StructureDefinition-bluebutton-inpatient-nch-ip-ncvrd-chrg-amt-extension","valueMoney":{"code":"USD","system":"urn:iso:std:iso:4217","value":0}},{"url":"https://bluebutton.cms.gov/assets/ig/StructureDefinition-bluebutton-inpatient-nch-ip-tot-ddctn-amt-extension","valueMoney":{"code":"USD","system":"urn:iso:std:iso:4217","value":0}},{"url":"https://bluebutton.cms.gov/assets/ig/StructureDefinition-bluebutton-inpatient-clm-pps-cptl-dsprprtnt-shr-amt-extension","valueMoney":{"code":"USD","system":"urn:iso:std:iso:4217","value":0}},{"url":"https://bluebutton.cms.gov/assets/ig/StructureDefinition-bluebutton-inpatient-clm-pps-cptl-excptn-amt-extension","valueMoney":{"code":"USD","system":"urn:iso:std:iso:4217","value":0}},{"url":"https://bluebutton.cms.gov/assets/ig/StructureDefinition-bluebutton-inpatient-clm-pps-cptl-fsp-amt-extension","valueMoney":{"code":"USD","system":"urn:iso:std:iso:4217","value":0}},{"url":"https://bluebutton.cms.gov/assets/ig/StructureDefinition-bluebutton-inpatient-clm-pps-cptl-ime-amt-extension","valueMoney":{"code":"USD","system":"urn:iso:std:iso:4217","value":400}},{"url":"https://bluebutton.cms.gov/assets/ig/StructureDefinition-bluebutton-inpatient-clm-pps-cptl-outlier-amt-extension","valueMoney":{"code":"USD","system":"urn:iso:std:iso:4217","value":0}},{"url":"https://bluebutton.cms.gov/assets/ig/StructureDefinition-bluebutton-inpatient-clm-pps-old-cptl-hld-hrmls-amt-extension","valueMoney":{"code":"USD","system":"urn:iso:std:iso:4217","value":0}},{"url":"https://bluebutton.cms.gov/assets/ig/StructureDefinition-bluebutton-inpatient-nch-drg-outlier-aprvd-pmt-amt-extension","valueMoney":{"code":"USD","system":"urn:iso:std:iso:4217","value":0}},{"url":"https://bluebutton.cms.gov/assets/ig/StructureDefinition-bluebutton-inpatient-nch-bene-blood-ddctbl-lblty-am-extension","valueMoney":{"code":"USD","system":"urn:iso:std:iso:4217","value":0}},{"url":"https://bluebutton.cms.gov/assets/ig/StructureDefinition-bluebutton-inpatient-clm-mdcr-non-pmt-rsn-cd-extension","valueCoding":{"code":"N","display":"All other reasons for non-payment","system":"https://bluebutton.cms.gov/assets/ig/CodeSystem-clm-mdcr-non-pmt-rsn-cd"}},{"url":"https://bluebutton.cms.gov/assets/ig/StructureDefinition-bluebutton-inpatient-prpayamt-extension","valueMoney":{"code":"USD","system":"urn:iso:std:iso:4217","value":0}},{"url":"https://bluebutton.cms.gov/assets/ig/StructureDefinition-bluebutton-inpatient-fi-num-extension","valueIdentifier":{"system":"https://bluebutton.cms.gov/assets/ig/CodeSystem-fi-num","value":"002000"}}],"id":"fd93452e-30b4-4067-a2e9-88d90398f408","identifier":[{"system":"https://bluebutton.cms.gov/resources/variables/clm_id","value":"2daccb5f-77a4-4162-9cbe-937ee44d5406"},{"system":"https://bluebutton.cms.gov/resources/identifier/claim-group","value":"99999999999"}],"insurance":{"coverage":{"reference":"#coverage"}},"item":[{"extension":[{"url":"https://bluebutton.cms.gov/assets/ig/StructureDefinition-bluebutton-inpatient-rev-cntr-ndc-qty-extension","valueQuantity":{"value":0}}],"locationCodeableConcept":{"coding":[{"code":"21","display":"Inpatient Hospital","system":"https://bluebutton.cms.gov/resources/variables/line_place_of_srvc_cd"}]},"sequence":1},{"extension":[{"url":"https://bluebutton.cms.gov/assets/ig/StructureDefinition-bluebutton-inpatient-rev-cntr-ndc-qty-extension","valueQuantity":{"value":0}}],"locationCodeableConcept":{"coding":[{"code":"21","display":"Inpatient Hospital","system":"https://bluebutton.cms.gov/resources/variables/line_place_of_srvc_cd"}]},"sequence":2}],"meta":{"lastUpdated":"2019-04-09T12:03:32.395680+00:00","profile":["https://bluebutton.cms.gov/assets/ig/StructureDefinition-bluebutton-inpatient-claim"],"versionId":"MTU1NDgxMTQxMjM5NTY4MDAwMA"},"organization":{"identifier":{"value":"3c1a6594-2deb-4ff5-972a-a209361ec3eb"}},"patient":{"reference":"Patient/0accf4d2-156a-425c-8400-33c073a0f661"},"payment":{"amount":{"code":"USD","system":"urn:iso:std:iso:4217","value":0}},"provider":{"identifier":{"value":"26c419ce-a137-417b-90ef-8da89cacc8e3"}},"resourceType":"ExplanationOfBenefit","status":"active","totalCost":{"code":"USD","system":"urn:iso:std:iso:4217","value":125},"type":{"coding":[{"code":"71","display":"Local carrier non-durable medical equipment, prosthetics, orthotics, and supplies (DMEPOS) claim","system":"https://bluebutton.cms.gov/resources/variables/nch_clm_type_cd"},{"code":"CARRIER","display":"EOB Type","system":"https://bluebutton.cms.gov/resources/codesystem/eob-type"},{"code":"professional","display":"Claim Type","system":"http://hl7.org/fhir/ex-claimtype"},{"code":"O","display":"Part B physician/supplier claim record (processed by local carriers; can include DMEPOS services)","system":"https://bluebutton.cms.gov/resources/variables/nch_near_line_rec_ident_cd"}]}}},{"resource":{"context":{"reference":"Encounter/66ac8ffd-0fd7-4850-af70-751b44809da7"},"id":"2747c92a-95bc-48db-9482-1f5271ec384e","meta":{"lastUpdated":"2019-04-09T12:03:26.155046+00:00","versionId":"MTU1NDgxMTQwNjE1NTA0NjAwMA"},"numberOfInstances":1,"numberOfSeries":1,"patient":{"reference":"Patient/0accf4d2-156a-425c-8400-33c073a0f661"},"resourceType":"ImagingStudy","series":[{"availability":"UNAVAILABLE","bodySite":{"code":"12921003","display":"Pelvis","system":"http://snomed.info/sct"},"instance":[{"number":1,"sopClass":"urn:oid:1.2.840.10008.5.1.4.1.1.1.1","title":"Image of pelvis","uid":"urn:oid:1.2.840.99999999.1.1.96695041.1547146218712"}],"modality":{"code":"DX","display":"Digital Radiography","system":"http://dicom.nema.org/resources/ontology/DCM"},"number":1,"numberOfInstances":1,"started":"1978-11-19T06:57:23-05:00","uid":"urn:oid:1.2.840.99999999.1.14734242.1547146218712"}],"started":"1978-11-19T06:57:23-05:00","uid":"urn:oid:1.2.840.99999999.25074607.1547146218712"}},{"resource":{"date":"2009-11-18T06:57:23-05:00","encounter":{"reference":"Encounter/12731c13-407e-4044-9890-ee8f09033e3b"},"id":"00634129-807b-4f5f-ad29-f9e9686b41a3","meta":{"lastUpdated":"2019-04-09T12:03:27.203182+00:00","versionId":"MTU1NDgxMTQwNzIwMzE4MjAwMA"},"notGiven":false,"patient":{"reference":"Patient/0accf4d2-156a-425c-8400-33c073a0f661"},"primarySource":true,"resourceType":"Immunization","status":"completed","vaccineCode":{"coding":[{"code":"140","display":"Influenza, seasonal, injectable, preservative free","system":"http://hl7.org/fhir/sid/cvx"}],"text":"Influenza, seasonal, injectable, preservative free"}}},{"resource":{"date":"2015-05-20T07:57:23-04:00","encounter":{"reference":"Encounter/367910d3-07c6-443c-9b87-e8ef0e6e7263"},"id":"16c0b7ef-780b-4095-8f13-3ef4bab1d4b1","meta":{"lastUpdated":"2019-04-09T12:03:33.405156+00:00","versionId":"MTU1NDgxMTQxMzQwNTE1NjAwMA"},"notGiven":false,"patient":{"reference":"Patient/0accf4d2-156a-425c-8400-33c073a0f661"},"primarySource":true,"resourceType":"Immunization","status":"completed","vaccineCode":{"coding":[{"code":"113","display":"Td (adult) preservative free","system":"http://hl7.org/fhir/sid/cvx"}],"text":"Td (adult) preservative free"}}},{"resource":{"date":"2017-12-06T06:57:23-05:00","encounter":{"reference":"Encounter/6499697f-79bb-4154-b4ae-060094370e1f"},"id":"373f755a-2cab-4ab6-aad1-c75fc4c4ce40","meta":{"lastUpdated":"2019-04-09T12:03:36.481510+00:00","versionId":"MTU1NDgxMTQxNjQ4MTUxMDAwMA"},"notGiven":false,"patient":{"reference":"Patient/0accf4d2-156a-425c-8400-33c073a0f661"},"primarySource":true,"resourceType":"Immunization","status":"completed","vaccineCode":{"coding":[{"code":"140","display":"Influenza, seasonal, injectable, preservative free","system":"http://hl7.org/fhir/sid/cvx"}],"text":"Influenza, seasonal, injectable, preservative free"}}},{"resource":{"date":"2014-05-21T07:57:23-04:00","encounter":{"reference":"Encounter/ad9f4a6e-a42b-46f9-bd43-05b9a9cc7556"},"id":"40ffa539-3556-4ae3-90e8-98527dde9449","meta":{"lastUpdated":"2019-04-09T12:03:32.364755+00:00","versionId":"MTU1NDgxMTQxMjM2NDc1NTAwMA"},"notGiven":false,"patient":{"reference":"Patient/0accf4d2-156a-425c-8400-33c073a0f661"},"primarySource":true,"resourceType":"Immunization","status":"completed","vaccineCode":{"coding":[{"code":"121","display":"zoster","system":"http://hl7.org/fhir/sid/cvx"}],"text":"zoster"}}},{"resource":{"date":"2016-12-07T06:57:23-05:00","encounter":{"reference":"Encounter/6ef8598d-dcc2-4fed-8d35-f406fda5cd57"},"id":"636ec40e-bc67-448f-be46-d77872e94527","meta":{"lastUpdated":"2019-04-09T12:03:35.473356+00:00","versionId":"MTU1NDgxMTQxNTQ3MzM1NjAwMA"},"notGiven":false,"patient":{"reference":"Patient/0accf4d2-156a-425c-8400-33c073a0f661"},"primarySource":true,"resourceType":"Immunization","status":"completed","vaccineCode":{"coding":[{"code":"140","display":"Influenza, seasonal, injectable, preservative free","system":"http://hl7.org/fhir/sid/cvx"}],"text":"Influenza, seasonal, injectable, preservative free"}}},{"resource":{"date":"2015-12-16T06:57:23-05:00","encounter":{"reference":"Encounter/cef4fe38-4e76-4cd2-8a35-12ef9be897a8"},"id":"65ef94d6-0b0b-496c-89c6-f8a4cf174a86","meta":{"lastUpdated":"2019-04-09T12:03:33.409528+00:00","versionId":"MTU1NDgxMTQxMzQwOTUyODAwMA"},"notGiven":false,"patient":{"reference":"Patient/0accf4d2-156a-425c-8400-33c073a0f661"},"primarySource":true,"resourceType":"Immunization","status":"completed","vaccineCode":{"coding":[{"code":"140","display":"Influenza, seasonal, injectable, preservative free","system":"http://hl7.org/fhir/sid/cvx"}],"text":"Influenza, seasonal, injectable, preservative free"}}},{"resource":{"date":"2012-11-07T06:57:23-05:00","encounter":{"reference":"Encounter/ff80e9b9-c9d4-4d51-9a0a-f2757518e1b7"},"id":"6699588d-bfd7-4bd6-882f-43bb663078f8","meta":{"lastUpdated":"2019-04-09T12:03:29.379378+00:00","versionId":"MTU1NDgxMTQwOTM3OTM3ODAwMA"},"notGiven":false,"patient":{"reference":"Patient/0accf4d2-156a-425c-8400-33c073a0f661"},"primarySource":true,"resourceType":"Immunization","status":"completed","vaccineCode":{"coding":[{"code":"140","display":"Influenza, seasonal, injectable, preservative free","system":"http://hl7.org/fhir/sid/cvx"}],"text":"Influenza, seasonal, injectable, preservative free"}}},{"resource":{"date":"2014-11-19T06:57:23-05:00","encounter":{"reference":"Encounter/62764d69-1b97-4d25-8e10-15060e9c1af7"},"id":"74a99e10-7628-4b62-aa96-d4b25caccc80","meta":{"lastUpdated":"2019-04-09T12:03:32.380572+00:00","versionId":"MTU1NDgxMTQxMjM4MDU3MjAwMA"},"notGiven":false,"patient":{"reference":"Patient/0accf4d2-156a-425c-8400-33c073a0f661"},"primarySource":true,"resourceType":"Immunization","status":"completed","vaccineCode":{"coding":[{"code":"121","display":"zoster","system":"http://hl7.org/fhir/sid/cvx"}],"text":"zoster"}}},{"resource":{"date":"2018-11-28T06:57:23-05:00","encounter":{"reference":"Encounter/7be34403-3dc9-450e-826c-3a8523350348"},"id":"76837ad1-93f2-465d-925a-d31c6f094064","meta":{"lastUpdated":"2019-04-09T12:03:37.496927+00:00","versionId":"MTU1NDgxMTQxNzQ5NjkyNzAwMA"},"notGiven":false,"patient":{"reference":"Patient/0accf4d2-156a-425c-8400-33c073a0f661"},"primarySource":true,"resourceType":"Immunization","status":"completed","vaccineCode":{"coding":[{"code":"140","display":"Influenza, seasonal, injectable, preservative free","system":"http://hl7.org/fhir/sid/cvx"}],"text":"Influenza, seasonal, injectable, preservative free"}}},{"resource":{"date":"2011-12-07T06:57:23-05:00","encounter":{"reference":"Encounter/ee3aa1cf-23bd-4b5d-97c1-4072b885a338"},"id":"880c9223-f934-4c75-aa92-a0fb94631f7c","meta":{"lastUpdated":"2019-04-09T12:03:28.287493+00:00","versionId":"MTU1NDgxMTQwODI4NzQ5MzAwMA"},"notGiven":false,"patient":{"reference":"Patient/0accf4d2-156a-425c-8400-33c073a0f661"},"primarySource":true,"resourceType":"Immunization","status":"completed","vaccineCode":{"coding":[{"code":"140","display":"Influenza, seasonal, injectable, preservative free","system":"http://hl7.org/fhir/sid/cvx"}],"text":"Influenza, seasonal, injectable, preservative free"}}},{"resource":{"date":"2013-11-27T06:57:23-05:00","encounter":{"reference":"Encounter/209ee43c-741b-4c56-b7a1-3a2cd5184fa8"},"id":"a4764645-b315-4608-9cbd-4b9f3df0b346","meta":{"lastUpdated":"2019-04-09T12:03:31.356130+00:00","versionId":"MTU1NDgxMTQxMTM1NjEzMDAwMA"},"notGiven":false,"patient":{"reference":"Patient/0accf4d2-156a-425c-8400-33c073a0f661"},"primarySource":true,"resourceType":"Immunization","status":"completed","vaccineCode":{"coding":[{"code":"140","display":"Influenza, seasonal, injectable, preservative free","system":"http://hl7.org/fhir/sid/cvx"}],"text":"Influenza, seasonal, injectable, preservative free"}}},{"resource":{"date":"2014-11-19T06:57:23-05:00","encounter":{"reference":"Encounter/62764d69-1b97-4d25-8e10-15060e9c1af7"},"id":"e99d2d15-0744-4b9e-97d0-83bbe6c1f7ef","meta":{"lastUpdated":"2019-04-09T12:03:32.364107+00:00","versionId":"MTU1NDgxMTQxMjM2NDEwNzAwMA"},"notGiven":false,"patient":{"reference":"Patient/0accf4d2-156a-425c-8400-33c073a0f661"},"primarySource":true,"resourceType":"Immunization","status":"completed","vaccineCode":{"coding":[{"code":"140","display":"Influenza, seasonal, injectable, preservative free","system":"http://hl7.org/fhir/sid/cvx"}],"text":"Influenza, seasonal, injectable, preservative free"}}},{"resource":{"date":"2010-12-08T06:57:23-05:00","encounter":{"reference":"Encounter/b70ffe0b-4ae1-4cd1-bf27-b88f0d56f5c7"},"id":"efef7fe6-5628-480d-ad02-4143a00bf4e8","meta":{"lastUpdated":"2019-04-09T12:03:27.236069+00:00","versionId":"MTU1NDgxMTQwNzIzNjA2OTAwMA"},"notGiven":false,"patient":{"reference":"Patient/0accf4d2-156a-425c-8400-33c073a0f661"},"primarySource":true,"resourceType":"Immunization","status":"completed","vaccineCode":{"coding":[{"code":"140","display":"Influenza, seasonal, injectable, preservative free","system":"http://hl7.org/fhir/sid/cvx"}],"text":"Influenza, seasonal, injectable, preservative free"}}},{"resource":{"authoredOn":"2015-01-31T06:57:23-05:00","context":{"reference":"Encounter/68ceac21-20b0-45ab-b746-da40b0e6d94a"},"id":"0390010c-f6b9-4769-af39-56635769eafb","intent":"order","medicationCodeableConcept":{"coding":[{"code":"313782","display":"Acetaminophen 325 MG Oral Tablet","system":"http://www.nlm.nih.gov/research/umls/rxnorm"}],"text":"Acetaminophen 325 MG Oral Tablet"},"meta":{"lastUpdated":"2019-04-09T12:03:32.408626+00:00","versionId":"MTU1NDgxMTQxMjQwODYyNjAwMA"},"reasonReference":[{"reference":"Condition/9a97ffaf-2e74-4afc-a8e3-5ea4505a1b76"},{"reference":"Condition/9fcdde05-2f5d-4289-8eff-475f7bcd0ecf"},{"reference":"Condition/60d48c64-2c71-422d-8e82-15619a883d33"}],"requester":{"agent":{"reference":"Practitioner/26c419ce-a137-417b-90ef-8da89cacc8e3"},"onBehalfOf":{"reference":"Organization/3c1a6594-2deb-4ff5-972a-a209361ec3eb"}},"resourceType":"MedicationRequest","status":"stopped","subject":{"reference":"Patient/0accf4d2-156a-425c-8400-33c073a0f661"}}},{"resource":{"authoredOn":"1988-05-23T07:57:23-04:00","context":{"reference":"Encounter/76c57feb-753d-455e-af4c-c7d2a79048dc"},"dosageInstruction":[{"asNeededBoolean":true,"sequence":1}],"id":"0ff95e07-7753-4332-84da-f14159a90ba7","intent":"order","medicationCodeableConcept":{"coding":[{"code":"141918","display":"Terfenadine 60 MG Oral Tablet","system":"http://www.nlm.nih.gov/research/umls/rxnorm"}],"text":"Terfenadine 60 MG Oral Tablet"},"meta":{"lastUpdated":"2019-04-09T12:03:26.154345+00:00","versionId":"MTU1NDgxMTQwNjE1NDM0NTAwMA"},"requester":{"agent":{"reference":"Practitioner/26c419ce-a137-417b-90ef-8da89cacc8e3"},"onBehalfOf":{"reference":"Organization/3c1a6594-2deb-4ff5-972a-a209361ec3eb"}},"resourceType":"MedicationRequest","status":"active","subject":{"reference":"Patient/0accf4d2-156a-425c-8400-33c073a0f661"}}},{"resource":{"authoredOn":"1988-05-23T07:57:23-04:00","context":{"reference":"Encounter/76c57feb-753d-455e-af4c-c7d2a79048dc"},"dosageInstruction":[{"asNeededBoolean":true,"sequence":1}],"id":"1ffd0083-0a95-4f56-a36a-34cf08a90e07","intent":"order","medicationCodeableConcept":{"coding":[{"code":"1870230","display":"NDA020800 0.3 ML Epinephrine 1 MG/ML Auto-Injector","system":"http://www.nlm.nih.gov/research/umls/rxnorm"}],"text":"NDA020800 0.3 ML Epinephrine 1 MG/ML Auto-Injector"},"meta":{"lastUpdated":"2019-04-09T12:03:26.165194+00:00","versionId":"MTU1NDgxMTQwNjE2NTE5NDAwMA"},"requester":{"agent":{"reference":"Practitioner/26c419ce-a137-417b-90ef-8da89cacc8e3"},"onBehalfOf":{"reference":"Organization/3c1a6594-2deb-4ff5-972a-a209361ec3eb"}},"resourceType":"MedicationRequest","status":"active","subject":{"reference":"Patient/0accf4d2-156a-425c-8400-33c073a0f661"}}},{"resource":{"authoredOn":"2019-01-07T06:57:23-05:00","context":{"reference":"Encounter/68ea31fb-dba8-4fdf-b79f-2125ab326cbe"},"id":"24f82ba8-aa1d-4362-bc11-1ada0ed4da35","intent":"order","medicationCodeableConcept":{"coding":[{"code":"313782","display":"Acetaminophen 325 MG Oral Tablet","system":"http://www.nlm.nih.gov/research/umls/rxnorm"}],"text":"Acetaminophen 325 MG Oral Tablet"},"meta":{"lastUpdated":"2019-04-09T12:03:37.512750+00:00","versionId":"MTU1NDgxMTQxNzUxMjc1MDAwMA"},"reasonReference":[{"reference":"Condition/9a97ffaf-2e74-4afc-a8e3-5ea4505a1b76"},{"reference":"Condition/9fcdde05-2f5d-4289-8eff-475f7bcd0ecf"},{"reference":"Condition/60d48c64-2c71-422d-8e82-15619a883d33"},{"reference":"Condition/9a5afc65-90c4-4a66-af59-bc4b260a39b4"}],"requester":{"agent":{"reference":"Practitioner/26c419ce-a137-417b-90ef-8da89cacc8e3"},"onBehalfOf":{"reference":"Organization/3c1a6594-2deb-4ff5-972a-a209361ec3eb"}},"resourceType":"MedicationRequest","status":"active","subject":{"reference":"Patient/0accf4d2-156a-425c-8400-33c073a0f661"}}},{"resource":{"authoredOn":"2014-09-25T07:57:23-04:00","context":{"reference":"Encounter/dd1f80ff-0a95-4548-b62c-1d8a683f17f7"},"dosageInstruction":[{"asNeededBoolean":true,"sequence":1}],"id":"422b0337-d42e-43d6-9325-69e19ef9b0a6","intent":"order","medicationCodeableConcept":{"coding":[{"code":"310965","display":"Ibuprofen 200 MG Oral Tablet","system":"http://www.nlm.nih.gov/research/umls/rxnorm"}],"text":"Ibuprofen 200 MG Oral Tablet"},"meta":{"lastUpdated":"2019-04-09T12:03:32.374754+00:00","versionId":"MTU1NDgxMTQxMjM3NDc1NDAwMA"},"requester":{"agent":{"reference":"Practitioner/26c419ce-a137-417b-90ef-8da89cacc8e3"},"onBehalfOf":{"reference":"Organization/3c1a6594-2deb-4ff5-972a-a209361ec3eb"}},"resourceType":"MedicationRequest","status":"stopped","subject":{"reference":"Patient/0accf4d2-156a-425c-8400-33c073a0f661"}}},{"resource":{"authoredOn":"1978-11-19T06:57:23-05:00","context":{"reference":"Encounter/66ac8ffd-0fd7-4850-af70-751b44809da7"},"dosageInstruction":[{"asNeededBoolean":true,"sequence":1}],"id":"4ae174fe-654c-4064-8d8e-37815fe22c03","intent":"order","medicationCodeableConcept":{"coding":[{"code":"313782","display":"Acetaminophen 325 MG Oral Tablet","system":"http://www.nlm.nih.gov/research/umls/rxnorm"}],"text":"Acetaminophen 325 MG Oral Tablet"},"meta":{"lastUpdated":"2019-04-09T12:03:26.159405+00:00","versionId":"MTU1NDgxMTQwNjE1OTQwNTAwMA"},"requester":{"agent":{"reference":"Practitioner/26c419ce-a137-417b-90ef-8da89cacc8e3"},"onBehalfOf":{"reference":"Organization/3c1a6594-2deb-4ff5-972a-a209361ec3eb"}},"resourceType":"MedicationRequest","status":"stopped","subject":{"reference":"Patient/0accf4d2-156a-425c-8400-33c073a0f661"}}},{"resource":{"authoredOn":"2001-06-23T07:57:23-04:00","context":{"reference":"Encounter/05346ee6-81fb-40c9-9016-ec9a309046df"},"id":"56f595d2-ae97-4111-8491-985291984b48","intent":"order","medicationCodeableConcept":{"coding":[{"code":"313782","display":"Acetaminophen 325 MG Oral Tablet","system":"http://www.nlm.nih.gov/research/umls/rxnorm"}],"text":"Acetaminophen 325 MG Oral Tablet"},"meta":{"lastUpdated":"2019-04-09T12:03:26.160177+00:00","versionId":"MTU1NDgxMTQwNjE2MDE3NzAwMA"},"reasonReference":[{"reference":"Condition/9a97ffaf-2e74-4afc-a8e3-5ea4505a1b76"}],"requester":{"agent":{"reference":"Practitioner/26c419ce-a137-417b-90ef-8da89cacc8e3"},"onBehalfOf":{"reference":"Organization/3c1a6594-2deb-4ff5-972a-a209361ec3eb"}},"resourceType":"MedicationRequest","status":"stopped","subject":{"reference":"Patient/0accf4d2-156a-425c-8400-33c073a0f661"}}},{"resource":{"authoredOn":"2013-11-15T06:57:23-05:00","context":{"reference":"Encounter/4171df32-40e3-465b-ab54-34f2596b5f95"},"dosageInstruction":[{"asNeededBoolean":true,"sequence":1}],"id":"5ec2500d-de06-4cea-9653-023ea1b45a54","intent":"order","medicationCodeableConcept":{"coding":[{"code":"849574","display":"Naproxen sodium 220 MG Oral Tablet","system":"http://www.nlm.nih.gov/research/umls/rxnorm"}],"text":"Naproxen sodium 220 MG Oral Tablet"},"meta":{"lastUpdated":"2019-04-09T12:03:31.361239+00:00","versionId":"MTU1NDgxMTQxMTM2MTIzOTAwMA"},"requester":{"agent":{"reference":"Practitioner/26c419ce-a137-417b-90ef-8da89cacc8e3"},"onBehalfOf":{"reference":"Organization/3c1a6594-2deb-4ff5-972a-a209361ec3eb"}},"resourceType":"MedicationRequest","status":"stopped","subject":{"reference":"Patient/0accf4d2-156a-425c-8400-33c073a0f661"}}},{"resource":{"authoredOn":"2009-04-21T07:57:23-04:00","context":{"reference":"Encounter/ad8b29e1-4612-4680-84a5-da3cebce6886"},"id":"773287f3-3a22-4a4c-88ea-08f1ca21bbf2","intent":"order","medicationCodeableConcept":{"coding":[{"code":"313782","display":"Acetaminophen 325 MG Oral Tablet","system":"http://www.nlm.nih.gov/research/umls/rxnorm"}],"text":"Acetaminophen 325 MG Oral Tablet"},"meta":{"lastUpdated":"2019-04-09T12:03:26.165188+00:00","versionId":"MTU1NDgxMTQwNjE2NTE4ODAwMA"},"reasonReference":[{"reference":"Condition/9a97ffaf-2e74-4afc-a8e3-5ea4505a1b76"},{"reference":"Condition/9fcdde05-2f5d-4289-8eff-475f7bcd0ecf"}],"requester":{"agent":{"reference":"Practitioner/26c419ce-a137-417b-90ef-8da89cacc8e3"},"onBehalfOf":{"reference":"Organization/3c1a6594-2deb-4ff5-972a-a209361ec3eb"}},"resourceType":"MedicationRequest","status":"stopped","subject":{"reference":"Patient/0accf4d2-156a-425c-8400-33c073a0f661"}}},{"resource":{"authoredOn":"1991-07-24T07:57:23-04:00","context":{"reference":"Encounter/a40b9b1c-62fc-40a3-8fe5-d3027e95acde"},"id":"7e0a9738-b279-4acb-a92d-c44ea6da022a","intent":"order","medicationCodeableConcept":{"coding":[{"code":"106892","display":"insulin human, isophane 70 UNT/ML / Regular Insulin, Human 30 UNT/ML Injectable Suspension [Humulin]","system":"http://www.nlm.nih.gov/research/umls/rxnorm"}],"text":"insulin human, isophane 70 UNT/ML / Regular Insulin, Human 30 UNT/ML Injectable Suspension [Humulin]"},"meta":{"lastUpdated":"2019-04-09T12:03:26.161195+00:00","versionId":"MTU1NDgxMTQwNjE2MTE5NTAwMA"},"reasonReference":[{"reference":"Condition/06bb94eb-5214-4101-8b97-fd5839f8c29e"}],"requester":{"agent":{"reference":"Practitioner/26c419ce-a137-417b-90ef-8da89cacc8e3"},"onBehalfOf":{"reference":"Organization/3c1a6594-2deb-4ff5-972a-a209361ec3eb"}},"resourceType":"MedicationRequest","status":"active","subject":{"reference":"Patient/0accf4d2-156a-425c-8400-33c073a0f661"}}},{"resource":{"authoredOn":"1988-05-10T07:57:23-04:00","context":{"reference":"Encounter/cc495b5d-fe0c-4374-88c7-52e1fea427a3"},"dosageInstruction":[{"asNeededBoolean":true,"sequence":1}],"id":"a9259aab-aba4-43d2-849b-df0f6720aa63","intent":"order","medicationCodeableConcept":{"coding":[{"code":"106258","display":"Hydrocortisone 10 MG/ML Topical Cream","system":"http://www.nlm.nih.gov/research/umls/rxnorm"}],"text":"Hydrocortisone 10 MG/ML Topical Cream"},"meta":{"lastUpdated":"2019-04-09T12:03:26.160176+00:00","versionId":"MTU1NDgxMTQwNjE2MDE3NjAwMA"},"requester":{"agent":{"reference":"Practitioner/26c419ce-a137-417b-90ef-8da89cacc8e3"},"onBehalfOf":{"reference":"Organization/3c1a6594-2deb-4ff5-972a-a209361ec3eb"}},"resourceType":"MedicationRequest","status":"active","subject":{"reference":"Patient/0accf4d2-156a-425c-8400-33c073a0f661"}}},{"resource":{"category":[{"coding":[{"code":"laboratory","display":"laboratory","system":"http://hl7.org/fhir/observation-category"}]}],"code":{"coding":[{"code":"2947-0","display":"Sodium","system":"http://loinc.org"}],"text":"Sodium"},"context":{"reference":"Encounter/f7302771-7858-4a66-bbdd-a20a7e01e774"},"effectiveDateTime":"2010-03-24T07:57:23-04:00","id":"004eb654-a836-490b-ac8a-d2a155d6cbc9","issued":"2010-03-24T07:57:23.260-04:00","meta":{"lastUpdated":"2019-04-09T12:03:27.224510+00:00","versionId":"MTU1NDgxMTQwNzIyNDUxMDAwMA"},"resourceType":"Observation","status":"final","subject":{"reference":"Patient/0accf4d2-156a-425c-8400-33c073a0f661"},"valueQuantity":{"code":"mmol/L","system":"http://unitsofmeasure.org","unit":"mmol/L","value":139.59829357078166}}},{"resource":{"category":[{"coding":[{"code":"vital-signs","display":"vital-signs","system":"http://hl7.org/fhir/observation-category"}]}],"code":{"coding":[{"code":"72514-3","display":"Pain severity - 0-10 verbal numeric rating [Score] - Reported","system":"http://loinc.org"}],"text":"Pain severity - 0-10 verbal numeric rating [Score] - Reported"},"context":{"reference":"Encounter/61433c7a-f47d-4da2-8703-76c737b35890"},"effectiveDateTime":"2012-01-04T06:57:23-05:00","id":"00ab7db1-d03c-44da-871c-f500e36950f3","issued":"2012-01-04T06:57:23.260-05:00","meta":{"lastUpdated":"2019-04-09T12:03:28.277288+00:00","versionId":"MTU1NDgxMTQwODI3NzI4ODAwMA"},"resourceType":"Observation","status":"final","subject":{"reference":"Patient/0accf4d2-156a-425c-8400-33c073a0f661"},"valueQuantity":{"code":"{score}","system":"http://unitsofmeasure.org","unit":"{score}","value":2.5694967483439073}}},{"resource":{"category":[{"coding":[{"code":"laboratory","display":"laboratory","system":"http://hl7.org/fhir/observation-category"}]}],"code":{"coding":[{"code":"2093-3","display":"Total Cholesterol","system":"http://loinc.org"}],"text":"Total Cholesterol"},"context":{"reference":"Encounter/227abca1-1137-4585-9b6c-42b05dd22516"},"effectiveDateTime":"2017-11-01T07:57:23-04:00","id":"0117d2a6-08b6-4a00-818c-e16a1a8a0df4","issued":"2017-11-01T07:57:23.260-04:00","meta":{"lastUpdated":"2019-04-09T12:03:36.485365+00:00","versionId":"MTU1NDgxMTQxNjQ4NTM2NTAwMA"},"resourceType":"Observation","status":"final","subject":{"reference":"Patient/0accf4d2-156a-425c-8400-33c073a0f661"},"valueQuantity":{"code":"mg/dL","system":"http://unitsofmeasure.org","unit":"mg/dL","value":206.30605016636758}}},{"resource":{"category":[{"coding":[{"code":"laboratory","display":"laboratory","system":"http://hl7.org/fhir/observation-category"}]}],"code":{"coding":[{"code":"2571-8","display":"Triglycerides","system":"http://loinc.org"}],"text":"Triglycerides"},"context":{"reference":"Encounter/d8e5cd14-488a-4d6f-a12a-40c60610b517"},"effectiveDateTime":"2013-08-07T07:57:23-04:00","id":"01278b37-bc3c-4673-bc1f-7796cc182d6e","issued":"2013-08-07T07:57:23.260-04:00","meta":{"lastUpdated":"2019-04-09T12:03:30.336981+00:00","versionId":"MTU1NDgxMTQxMDMzNjk4MTAwMA"},"resourceType":"Observation","status":"final","subject":{"reference":"Patient/0accf4d2-156a-425c-8400-33c073a0f661"},"valueQuantity":{"code":"mg/dL","system":"http://unitsofmeasure.org","unit":"mg/dL","value":192.22052261373742}}},{"resource":{"category":[{"coding":[{"code":"laboratory","display":"laboratory","system":"http://hl7.org/fhir/observation-category"}]}],"code":{"coding":[{"code":"18262-6","display":"Low Density Lipoprotein Cholesterol","system":"http://loinc.org"}],"text":"Low Density Lipoprotein Cholesterol"},"context":{"reference":"Encounter/6ef8598d-dcc2-4fed-8d35-f406fda5cd57"},"effectiveDateTime":"2016-12-07T06:57:23-05:00","id":"01343dc4-afb2-4bf0-b371-eedb7a11e8c4","issued":"2016-12-07T06:57:23.260-05:00","meta":{"lastUpdated":"2019-04-09T12:03:35.473360+00:00","versionId":"MTU1NDgxMTQxNTQ3MzM2MDAwMA"},"resourceType":"Observation","status":"final","subject":{"reference":"Patient/0accf4d2-156a-425c-8400-33c073a0f661"},"valueQuantity":{"code":"mg/dL","system":"http://unitsofmeasure.org","unit":"mg/dL","value":132.50252003121278}}},{"resource":{"category":[{"coding":[{"code":"laboratory","display":"laboratory","system":"http://hl7.org/fhir/observation-category"}]}],"code":{"coding":[{"code":"2093-3","display":"Total Cholesterol","system":"http://loinc.org"}],"text":"Total Cholesterol"},"context":{"reference":"Encounter/0e676ff4-a879-44d9-8eca-fd300a458868"},"effectiveDateTime":"2010-10-20T07:57:23-04:00","id":"013bc0fd-2902-4352-b3ec-610ecb4bc512","issued":"2010-10-20T07:57:23.260-04:00","meta":{"lastUpdated":"2019-04-09T12:03:27.218776+00:00","versionId":"MTU1NDgxMTQwNzIxODc3NjAwMA"},"resourceType":"Observation","status":"final","subject":{"reference":"Patient/0accf4d2-156a-425c-8400-33c073a0f661"},"valueQuantity":{"code":"mg/dL","system":"http://unitsofmeasure.org","unit":"mg/dL","value":223.29901455937073}}},{"resource":{"category":[{"coding":[{"code":"laboratory","display":"laboratory","system":"http://hl7.org/fhir/observation-category"}]}],"code":{"coding":[{"code":"6298-4","display":"Potassium","system":"http://loinc.org"}],"text":"Potassium"},"context":{"reference":"Encounter/12731c13-407e-4044-9890-ee8f09033e3b"},"effectiveDateTime":"2009-11-18T06:57:23-05:00","id":"01c9444c-49cd-48da-bd76-2c2800d32682","issued":"2009-11-18T06:57:23.260-05:00","meta":{"lastUpdated":"2019-04-09T12:03:27.213708+00:00","versionId":"MTU1NDgxMTQwNzIxMzcwODAwMA"},"resourceType":"Observation","status":"final","subject":{"reference":"Patient/0accf4d2-156a-425c-8400-33c073a0f661"},"valueQuantity":{"code":"mmol/L","system":"http://unitsofmeasure.org","unit":"mmol/L","value":4.663991377029742}}},{"resource":{"category":[{"coding":[{"code":"laboratory","display":"laboratory","system":"http://hl7.org/fhir/observation-category"}]}],"code":{"coding":[{"code":"6298-4","display":"Potassium","system":"http://loinc.org"}],"text":"Potassium"},"context":{"reference":"Encounter/82b893df-807a-4031-ad10-abbbb2c4e7db"},"effectiveDateTime":"2018-07-04T07:57:23-04:00","id":"01d2591a-ee49-411c-b410-0c1440485c82","issued":"2018-07-04T07:57:23.260-04:00","meta":{"lastUpdated":"2019-04-09T12:03:37.496767+00:00","versionId":"MTU1NDgxMTQxNzQ5Njc2NzAwMA"},"resourceType":"Observation","status":"final","subject":{"reference":"Patient/0accf4d2-156a-425c-8400-33c073a0f661"},"valueQuantity":{"code":"mmol/L","system":"http://unitsofmeasure.org","unit":"mmol/L","value":4.3720675872901165}}},{"resource":{"category":[{"coding":[{"code":"vital-signs","display":"vital-signs","system":"http://hl7.org/fhir/observation-category"}]}],"code":{"coding":[{"code":"29463-7","display":"Body Weight","system":"http://loinc.org"}],"text":"Body Weight"},"context":{"reference":"Encounter/227abca1-1137-4585-9b6c-42b05dd22516"},"effectiveDateTime":"2017-11-01T07:57:23-04:00","id":"01d4fdda-0709-46ba-9762-b18a339bb8e8","issued":"2017-11-01T07:57:23.260-04:00","meta":{"lastUpdated":"2019-04-09T12:03:36.481519+00:00","versionId":"MTU1NDgxMTQxNjQ4MTUxOTAwMA"},"resourceType":"Observation","status":"final","subject":{"reference":"Patient/0accf4d2-156a-425c-8400-33c073a0f661"},"valueQuantity":{"code":"kg","system":"http://unitsofmeasure.org","unit":"kg","value":106.25692036839077}}},{"resource":{"category":[{"coding":[{"code":"laboratory","display":"laboratory","system":"http://hl7.org/fhir/observation-category"}]}],"code":{"coding":[{"code":"2339-0","display":"Glucose","system":"http://loinc.org"}],"text":"Glucose"},"context":{"reference":"Encounter/61433c7a-f47d-4da2-8703-76c737b35890"},"effectiveDateTime":"2012-01-04T06:57:23-05:00","id":"02f70bb5-a02c-44a8-8605-73ff264c0f6b","issued":"2012-01-04T06:57:23.260-05:00","meta":{"lastUpdated":"2019-04-09T12:03:28.281378+00:00","versionId":"MTU1NDgxMTQwODI4MTM3ODAwMA"},"resourceType":"Observation","status":"final","subject":{"reference":"Patient/0accf4d2-156a-425c-8400-33c073a0f661"},"valueQuantity":{"code":"mg/dL","system":"http://unitsofmeasure.org","unit":"mg/dL","value":116.43422966636666}}},{"resource":{"category":[{"coding":[{"code":"laboratory","display":"laboratory","system":"http://hl7.org/fhir/observation-category"}]}],"code":{"coding":[{"code":"2085-9","display":"High Density Lipoprotein Cholesterol","system":"http://loinc.org"}],"text":"High Density Lipoprotein Cholesterol"},"context":{"reference":"Encounter/eb888af5-5220-4ff4-80eb-2b43cac5ee72"},"effectiveDateTime":"2009-07-29T07:57:23-04:00","id":"0312e67c-3abe-47b6-a7ec-2877d37b26f0","issued":"2009-07-29T07:57:23.260-04:00","meta":{"lastUpdated":"2019-04-09T12:03:26.180970+00:00","versionId":"MTU1NDgxMTQwNjE4MDk3MDAwMA"},"resourceType":"Observation","status":"final","subject":{"reference":"Patient/0accf4d2-156a-425c-8400-33c073a0f661"},"valueQuantity":{"code":"mg/dL","system":"http://unitsofmeasure.org","unit":"mg/dL","value":45.82659199950178}}},{"resource":{"category":[{"coding":[{"code":"laboratory","display":"laboratory","system":"http://hl7.org/fhir/observation-category"}]}],"code":{"coding":[{"code":"49765-1","display":"Calcium","system":"http://loinc.org"}],"text":"Calcium"},"context":{"reference":"Encounter/65bbafda-c532-4599-a865-a3f0b5f98429"},"effectiveDateTime":"2013-12-25T06:57:23-05:00","id":"035752dc-0ef5-4c15-8397-5ea1fb4401e3","issued":"2013-12-25T06:57:23.260-05:00","meta":{"lastUpdated":"2019-04-09T12:03:31.372621+00:00","versionId":"MTU1NDgxMTQxMTM3MjYyMTAwMA"},"resourceType":"Observation","status":"final","subject":{"reference":"Patient/0accf4d2-156a-425c-8400-33c073a0f661"},"valueQuantity":{"code":"mg/dL","system":"http://unitsofmeasure.org","unit":"mg/dL","value":9.760591613334636}}},{"resource":{"category":[{"coding":[{"code":"laboratory","display":"laboratory","system":"http://hl7.org/fhir/observation-category"}]}],"code":{"coding":[{"code":"6298-4","display":"Potassium","system":"http://loinc.org"}],"text":"Potassium"},"context":{"reference":"Encounter/820a48d9-8df4-493c-933d-41624ea4aaba"},"effectiveDateTime":"2010-04-14T07:57:23-04:00","id":"035b39a8-c906-482a-a00a-1ede61375648","issued":"2010-04-14T07:57:23.260-04:00","meta":{"lastUpdated":"2019-04-09T12:03:27.219097+00:00","versionId":"MTU1NDgxMTQwNzIxOTA5NzAwMA"},"resourceType":"Observation","status":"final","subject":{"reference":"Patient/0accf4d2-156a-425c-8400-33c073a0f661"},"valueQuantity":{"code":"mmol/L","system":"http://unitsofmeasure.org","unit":"mmol/L","value":5.128868792274464}}},{"resource":{"category":[{"coding":[{"code":"laboratory","display":"laboratory","system":"http://hl7.org/fhir/observation-category"}]}],"code":{"coding":[{"code":"2339-0","display":"Glucose","system":"http://loinc.org"}],"text":"Glucose"},"context":{"reference":"Encounter/5dbe5940-289e-441f-8ffa-cb1ef13cc4bc"},"effectiveDateTime":"2015-01-21T06:57:23-05:00","id":"039d2714-8875-4027-9fb9-79d694c27b7a","issued":"2015-01-21T06:57:23.260-05:00","meta":{"lastUpdated":"2019-04-09T12:03:32.409621+00:00","versionId":"MTU1NDgxMTQxMjQwOTYyMTAwMA"},"resourceType":"Observation","status":"final","subject":{"reference":"Patient/0accf4d2-156a-425c-8400-33c073a0f661"},"valueQuantity":{"code":"mg/dL","system":"http://unitsofmeasure.org","unit":"mg/dL","value":109.74121740800454}}},{"resource":{"category":[{"coding":[{"code":"laboratory","display":"laboratory","system":"http://hl7.org/fhir/observation-category"}]}],"code":{"coding":[{"code":"6298-4","display":"Potassium","system":"http://loinc.org"}],"text":"Potassium"},"context":{"reference":"Encounter/eeee67b1-97ba-43db-8e17-7692c550f416"},"effectiveDateTime":"2012-04-04T07:57:23-04:00","id":"041e07f9-7104-438d-8f92-72a90e57ea32","issued":"2012-04-04T07:57:23.260-04:00","meta":{"lastUpdated":"2019-04-09T12:03:28.312962+00:00","versionId":"MTU1NDgxMTQwODMxMjk2MjAwMA"},"resourceType":"Observation","status":"final","subject":{"reference":"Patient/0accf4d2-156a-425c-8400-33c073a0f661"},"valueQuantity":{"code":"mmol/L","system":"http://unitsofmeasure.org","unit":"mmol/L","value":4.312304533103457}}},{"resource":{"category":[{"coding":[{"code":"laboratory","display":"laboratory","system":"http://hl7.org/fhir/observation-category"}]}],"code":{"coding":[{"code":"2339-0","display":"Glucose","system":"http://loinc.org"}],"text":"Glucose"},"context":{"reference":"Encounter/c7f341ff-b544-4a41-ac27-38dd36d17410"},"effectiveDateTime":"2012-08-29T07:57:23-04:00","id":"0425b0ed-db8f-4af6-8943-9adb78e66ac5","issued":"2012-08-29T07:57:23.260-04:00","meta":{"lastUpdated":"2019-04-09T12:03:29.354961+00:00","versionId":"MTU1NDgxMTQwOTM1NDk2MTAwMA"},"resourceType":"Observation","status":"final","subject":{"reference":"Patient/0accf4d2-156a-425c-8400-33c073a0f661"},"valueQuantity":{"code":"mg/dL","system":"http://unitsofmeasure.org","unit":"mg/dL","value":101.12845819759028}}},{"resource":{"category":[{"coding":[{"code":"laboratory","display":"laboratory","system":"http://hl7.org/fhir/observation-category"}]}],"code":{"coding":[{"code":"2085-9","display":"High Density Lipoprotein Cholesterol","system":"http://loinc.org"}],"text":"High Density Lipoprotein Cholesterol"},"context":{"reference":"Encounter/e5110187-2347-412c-ac6d-75283ba352d1"},"effectiveDateTime":"2016-05-18T07:57:23-04:00","id":"043951dc-c1e0-4f0b-b6f3-b669ce5a6410","issued":"2016-05-18T07:57:23.260-04:00","meta":{"lastUpdated":"2019-04-09T12:03:34.443399+00:00","versionId":"MTU1NDgxMTQxNDQ0MzM5OTAwMA"},"resourceType":"Observation","status":"final","subject":{"reference":"Patient/0accf4d2-156a-425c-8400-33c073a0f661"},"valueQuantity":{"code":"mg/dL","system":"http://unitsofmeasure.org","unit":"mg/dL","value":50.44255591555496}}},{"resource":{"category":[{"coding":[{"code":"laboratory","display":"laboratory","system":"http://hl7.org/fhir/observation-category"}]}],"code":{"coding":[{"code":"2947-0","display":"Sodium","system":"http://loinc.org"}],"text":"Sodium"},"context":{"reference":"Encounter/6ef8598d-dcc2-4fed-8d35-f406fda5cd57"},"effectiveDateTime":"2016-12-07T06:57:23-05:00","id":"04497a4f-b626-4008-b3f0-d6c206a0b5df","issued":"2016-12-07T06:57:23.260-05:00","meta":{"lastUpdated":"2019-04-09T12:03:35.473057+00:00","versionId":"MTU1NDgxMTQxNTQ3MzA1NzAwMA"},"resourceType":"Observation","status":"final","subject":{"reference":"Patient/0accf4d2-156a-425c-8400-33c073a0f661"},"valueQuantity":{"code":"mmol/L","system":"http://unitsofmeasure.org","unit":"mmol/L","value":136.2157385616111}}},{"resource":{"category":[{"coding":[{"code":"laboratory","display":"laboratory","system":"http://hl7.org/fhir/observation-category"}]}],"code":{"coding":[{"code":"2085-9","display":"High Density Lipoprotein Cholesterol","system":"http://loinc.org"}],"text":"High Density Lipoprotein Cholesterol"},"context":{"reference":"Encounter/729947c3-df2f-4b69-a4f7-14620836a0d9"},"effectiveDateTime":"2018-04-04T07:57:23-04:00","id":"04604e30-ce7a-4fca-802c-faac058b6390","issued":"2018-04-04T07:57:23.260-04:00","meta":{"lastUpdated":"2019-04-09T12:03:36.508007+00:00","versionId":"MTU1NDgxMTQxNjUwODAwNzAwMA"},"resourceType":"Observation","status":"final","subject":{"reference":"Patient/0accf4d2-156a-425c-8400-33c073a0f661"},"valueQuantity":{"code":"mg/dL","system":"http://unitsofmeasure.org","unit":"mg/dL","value":47.86110520314242}}},{"resource":{"category":[{"coding":[{"code":"laboratory","display":"laboratory","system":"http://hl7.org/fhir/observation-category"}]}],"code":{"coding":[{"code":"2339-0","display":"Glucose","system":"http://loinc.org"}],"text":"Glucose"},"context":{"reference":"Encounter/f7302771-7858-4a66-bbdd-a20a7e01e774"},"effectiveDateTime":"2010-03-24T07:57:23-04:00","id":"04810ecd-66e6-4eac-b360-0d69c4d0b9e3","issued":"2010-03-24T07:57:23.260-04:00","meta":{"lastUpdated":"2019-04-09T12:03:27.212412+00:00","versionId":"MTU1NDgxMTQwNzIxMjQxMjAwMA"},"resourceType":"Observation","status":"final","subject":{"reference":"Patient/0accf4d2-156a-425c-8400-33c073a0f661"},"valueQuantity":{"code":"mg/dL","system":"http://unitsofmeasure.org","unit":"mg/dL","value":113.58587860611762}}},{"resource":{"category":[{"coding":[{"code":"vital-signs","display":"vital-signs","system":"http://hl7.org/fhir/observation-category"}]}],"code":{"coding":[{"code":"29463-7","display":"Body Weight","system":"http://loinc.org"}],"text":"Body Weight"},"context":{"reference":"Encounter/0558c0ab-d110-490b-8586-65ce3adf7dc6"},"effectiveDateTime":"2013-09-25T07:57:23-04:00","id":"04b74ef0-efaf-4097-9213-4ba5f9b9d547","issued":"2013-09-25T07:57:23.260-04:00","meta":{"lastUpdated":"2019-04-09T12:03:30.327047+00:00","versionId":"MTU1NDgxMTQxMDMyNzA0NzAwMA"},"resourceType":"Observation","status":"final","subject":{"reference":"Patient/0accf4d2-156a-425c-8400-33c073a0f661"},"valueQuantity":{"code":"kg","system":"http://unitsofmeasure.org","unit":"kg","value":106.25692036839077}}},{"resource":{"category":[{"coding":[{"code":"laboratory","display":"laboratory","system":"http://hl7.org/fhir/observation-category"}]}],"code":{"coding":[{"code":"2069-3","display":"Chloride","system":"http://loinc.org"}],"text":"Chloride"},"context":{"reference":"Encounter/82ed6b28-1598-4e82-93fc-34048e5fca58"},"effectiveDateTime":"2013-05-29T07:57:23-04:00","id":"04d03fb0-45a2-4f84-b3a3-754ca958645e","issued":"2013-05-29T07:57:23.260-04:00","meta":{"lastUpdated":"2019-04-09T12:03:30.323571+00:00","versionId":"MTU1NDgxMTQxMDMyMzU3MTAwMA"},"resourceType":"Observation","status":"final","subject":{"reference":"Patient/0accf4d2-156a-425c-8400-33c073a0f661"},"valueQuantity":{"code":"mmol/L","system":"http://unitsofmeasure.org","unit":"mmol/L","value":102.25515842254681}}},{"resource":{"category":[{"coding":[{"code":"laboratory","display":"laboratory","system":"http://hl7.org/fhir/observation-category"}]}],"code":{"coding":[{"code":"2339-0","display":"Glucose","system":"http://loinc.org"}],"text":"Glucose"},"context":{"reference":"Encounter/c8f12208-a5f5-41c8-8276-d3c02268d3c0"},"effectiveDateTime":"2013-03-27T07:57:23-04:00","id":"04d2ffc7-38ee-40ff-b48f-59e716698cf6","issued":"2013-03-27T07:57:23.260-04:00","meta":{"lastUpdated":"2019-04-09T12:03:30.327004+00:00","versionId":"MTU1NDgxMTQxMDMyNzAwNDAwMA"},"resourceType":"Observation","status":"final","subject":{"reference":"Patient/0accf4d2-156a-425c-8400-33c073a0f661"},"valueQuantity":{"code":"mg/dL","system":"http://unitsofmeasure.org","unit":"mg/dL","value":124.77530757116236}}},{"resource":{"category":[{"coding":[{"code":"laboratory","display":"laboratory","system":"http://hl7.org/fhir/observation-category"}]}],"code":{"coding":[{"code":"2085-9","display":"High Density Lipoprotein Cholesterol","system":"http://loinc.org"}],"text":"High Density Lipoprotein Cholesterol"},"context":{"reference":"Encounter/9a753b25-a5a3-410a-b2ec-3bacac1203c3"},"effectiveDateTime":"2017-06-14T07:57:23-04:00","id":"04f89e7b-ccdc-4f72-880d-c5ea2a4e2780","issued":"2017-06-14T07:57:23.260-04:00","meta":{"lastUpdated":"2019-04-09T12:03:35.495682+00:00","versionId":"MTU1NDgxMTQxNTQ5NTY4MjAwMA"},"resourceType":"Observation","status":"final","subject":{"reference":"Patient/0accf4d2-156a-425c-8400-33c073a0f661"},"valueQuantity":{"code":"mg/dL","system":"http://unitsofmeasure.org","unit":"mg/dL","value":47.448230274992675}}},{"resource":{"category":[{"coding":[{"code":"laboratory","display":"laboratory","system":"http://hl7.org/fhir/observation-category"}]}],"code":{"coding":[{"code":"6298-4","display":"Potassium","system":"http://loinc.org"}],"text":"Potassium"},"context":{"reference":"Encounter/c8f12208-a5f5-41c8-8276-d3c02268d3c0"},"effectiveDateTime":"2013-03-27T07:57:23-04:00","id":"0571ea8d-0642-4cac-b3ba-663ed7c43f4f","issued":"2013-03-27T07:57:23.260-04:00","meta":{"lastUpdated":"2019-04-09T12:03:30.321789+00:00","versionId":"MTU1NDgxMTQxMDMyMTc4OTAwMA"},"resourceType":"Observation","status":"final","subject":{"reference":"Patient/0accf4d2-156a-425c-8400-33c073a0f661"},"valueQuantity":{"code":"mmol/L","system":"http://unitsofmeasure.org","unit":"mmol/L","value":3.8127508926726836}}},{"resource":{"category":[{"coding":[{"code":"laboratory","display":"laboratory","system":"http://hl7.org/fhir/observation-category"}]}],"code":{"coding":[{"code":"2093-3","display":"Total Cholesterol","system":"http://loinc.org"}],"text":"Total Cholesterol"},"context":{"reference":"Encounter/8075aa3d-545e-4c34-aae0-72b8df9e4592"},"effectiveDateTime":"2018-12-05T06:57:23-05:00","id":"059173e2-1f60-47ca-b565-3810e5bad6c6","issued":"2018-12-05T06:57:23.260-05:00","meta":{"lastUpdated":"2019-04-09T12:03:37.501992+00:00","versionId":"MTU1NDgxMTQxNzUwMTk5MjAwMA"},"resourceType":"Observation","status":"final","subject":{"reference":"Patient/0accf4d2-156a-425c-8400-33c073a0f661"},"valueQuantity":{"code":"mg/dL","system":"http://unitsofmeasure.org","unit":"mg/dL","value":210.16175705005722}}},{"resource":{"category":[{"coding":[{"code":"vital-signs","display":"vital-signs","system":"http://hl7.org/fhir/observation-category"}]}],"code":{"coding":[{"code":"8302-2","display":"Body Height","system":"http://loinc.org"}],"text":"Body Height"},"context":{"reference":"Encounter/c7f341ff-b544-4a41-ac27-38dd36d17410"},"effectiveDateTime":"2012-08-29T07:57:23-04:00","id":"05be4e06-5861-4d3e-8890-527808e4f413","issued":"2012-08-29T07:57:23.260-04:00","meta":{"lastUpdated":"2019-04-09T12:03:29.351438+00:00","versionId":"MTU1NDgxMTQwOTM1MTQzODAwMA"},"resourceType":"Observation","status":"final","subject":{"reference":"Patient/0accf4d2-156a-425c-8400-33c073a0f661"},"valueQuantity":{"code":"cm","system":"http://unitsofmeasure.org","unit":"cm","value":178.92396891131287}}},{"resource":{"category":[{"coding":[{"code":"laboratory","display":"laboratory","system":"http://hl7.org/fhir/observation-category"}]}],"code":{"coding":[{"code":"18262-6","display":"Low Density Lipoprotein Cholesterol","system":"http://loinc.org"}],"text":"Low Density Lipoprotein Cholesterol"},"context":{"reference":"Encounter/a88ca6f2-6f24-43ec-a3c6-4d15558840f3"},"effectiveDateTime":"2015-10-14T07:57:23-04:00","id":"063374c9-0bb6-4e64-b294-473203ee643f","issued":"2015-10-14T07:57:23.260-04:00","meta":{"lastUpdated":"2019-04-09T12:03:33.409543+00:00","versionId":"MTU1NDgxMTQxMzQwOTU0MzAwMA"},"resourceType":"Observation","status":"final","subject":{"reference":"Patient/0accf4d2-156a-425c-8400-33c073a0f661"},"valueQuantity":{"code":"mg/dL","system":"http://unitsofmeasure.org","unit":"mg/dL","value":143.05647013013228}}},{"resource":{"category":[{"coding":[{"code":"laboratory","display":"laboratory","system":"http://hl7.org/fhir/observation-category"}]}],"code":{"coding":[{"code":"2093-3","display":"Total Cholesterol","system":"http://loinc.org"}],"text":"Total Cholesterol"},"context":{"reference":"Encounter/82ed6b28-1598-4e82-93fc-34048e5fca58"},"effectiveDateTime":"2013-05-29T07:57:23-04:00","id":"06c3c436-631a-4e94-b419-11e0858f5174","issued":"2013-05-29T07:57:23.260-04:00","meta":{"lastUpdated":"2019-04-09T12:03:30.329625+00:00","versionId":"MTU1NDgxMTQxMDMyOTYyNTAwMA"},"resourceType":"Observation","status":"final","subject":{"reference":"Patient/0accf4d2-156a-425c-8400-33c073a0f661"},"valueQuantity":{"code":"mg/dL","system":"http://unitsofmeasure.org","unit":"mg/dL","value":237.58379502455585}}},{"resource":{"category":[{"coding":[{"code":"laboratory","display":"laboratory","system":"http://hl7.org/fhir/observation-category"}]}],"code":{"coding":[{"code":"6298-4","display":"Potassium","system":"http://loinc.org"}],"text":"Potassium"},"context":{"reference":"Encounter/82ed6b28-1598-4e82-93fc-34048e5fca58"},"effectiveDateTime":"2013-05-29T07:57:23-04:00","id":"072fb9c5-4cea-42af-a7d5-411445f116a0","issued":"2013-05-29T07:57:23.260-04:00","meta":{"lastUpdated":"2019-04-09T12:03:30.333589+00:00","versionId":"MTU1NDgxMTQxMDMzMzU4OTAwMA"},"resourceType":"Observation","status":"final","subject":{"reference":"Patient/0accf4d2-156a-425c-8400-33c073a0f661"},"valueQuantity":{"code":"mmol/L","system":"http://unitsofmeasure.org","unit":"mmol/L","value":3.9561651439790175}}},{"resource":{"category":[{"coding":[{"code":"vital-signs","display":"vital-signs","system":"http://hl7.org/fhir/observation-category"}]}],"code":{"coding":[{"code":"39156-5","display":"Body Mass Index","system":"http://loinc.org"}],"text":"Body Mass Index"},"context":{"reference":"Encounter/8e01fdb7-6a37-4214-b94a-2e3930f287a4"},"effectiveDateTime":"2016-06-15T07:57:23-04:00","id":"073abe1c-d47f-4ea2-98b0-eef7949b4e9d","issued":"2016-06-15T07:57:23.260-04:00","meta":{"lastUpdated":"2019-04-09T12:03:34.448546+00:00","versionId":"MTU1NDgxMTQxNDQ0ODU0NjAwMA"},"resourceType":"Observation","status":"final","subject":{"reference":"Patient/0accf4d2-156a-425c-8400-33c073a0f661"},"valueQuantity":{"code":"kg/m2","system":"http://unitsofmeasure.org","unit":"kg/m2","value":33.190987847465344}}},{"resource":{"category":[{"coding":[{"code":"laboratory","display":"laboratory","system":"http://hl7.org/fhir/observation-category"}]}],"code":{"coding":[{"code":"2339-0","display":"Glucose","system":"http://loinc.org"}],"text":"Glucose"},"context":{"reference":"Encounter/8e01fdb7-6a37-4214-b94a-2e3930f287a4"},"effectiveDateTime":"2016-06-15T07:57:23-04:00","id":"0754b771-1874-4b65-9550-09c473780f7f","issued":"2016-06-15T07:57:23.260-04:00","meta":{"lastUpdated":"2019-04-09T12:03:34.434254+00:00","versionId":"MTU1NDgxMTQxNDQzNDI1NDAwMA"},"resourceType":"Observation","status":"final","subject":{"reference":"Patient/0accf4d2-156a-425c-8400-33c073a0f661"},"valueQuantity":{"code":"mg/dL","system":"http://unitsofmeasure.org","unit":"mg/dL","value":108.0624831869946}}},{"resource":{"category":[{"coding":[{"code":"laboratory","display":"laboratory","system":"http://hl7.org/fhir/observation-category"}]}],"code":{"coding":[{"code":"18262-6","display":"Low Density Lipoprotein Cholesterol","system":"http://loinc.org"}],"text":"Low Density Lipoprotein Cholesterol"},"context":{"reference":"Encounter/f80399f7-5182-45f8-9634-5c8186898bdf"},"effectiveDateTime":"2011-02-09T06:57:23-05:00","id":"075b9043-d145-4999-bbb9-53e3801e034a","issued":"2011-02-09T06:57:23.260-05:00","meta":{"lastUpdated":"2019-04-09T12:03:27.243518+00:00","versionId":"MTU1NDgxMTQwNzI0MzUxODAwMA"},"resourceType":"Observation","status":"final","subject":{"reference":"Patient/0accf4d2-156a-425c-8400-33c073a0f661"},"valueQuantity":{"code":"mg/dL","system":"http://unitsofmeasure.org","unit":"mg/dL","value":151.4103234698027}}},{"resource":{"category":[{"coding":[{"code":"laboratory","display":"laboratory","system":"http://hl7.org/fhir/observation-category"}]}],"code":{"coding":[{"code":"14959-1","display":"Microalbumin Creatinine Ratio","system":"http://loinc.org"}],"text":"Microalbumin Creatinine Ratio"},"context":{"reference":"Encounter/dd36d000-5a14-4c69-87d3-04b087ba099e"},"effectiveDateTime":"2014-08-20T07:57:23-04:00","id":"079a6e62-3b37-4e46-91eb-1faa3096ef88","issued":"2014-08-20T07:57:23.260-04:00","meta":{"lastUpdated":"2019-04-09T12:03:32.371369+00:00","versionId":"MTU1NDgxMTQxMjM3MTM2OTAwMA"},"resourceType":"Observation","status":"final","subject":{"reference":"Patient/0accf4d2-156a-425c-8400-33c073a0f661"},"valueQuantity":{"code":"mg/g","system":"http://unitsofmeasure.org","unit":"mg/g","value":21.580809346307262}}},{"resource":{"category":[{"coding":[{"code":"survey","display":"survey","system":"http://hl7.org/fhir/observation-category"}]}],"code":{"coding":[{"code":"72166-2","display":"Tobacco smoking status NHIS","system":"http://loinc.org"}],"text":"Tobacco smoking status NHIS"},"context":{"reference":"Encounter/23df6fcc-4cb0-41ad-8ee5-dc9f35e8f02a"},"effectiveDateTime":"2012-02-01T06:57:23-05:00","id":"07bb76dc-0a76-4ffa-997c-4e242db0aec9","issued":"2012-02-01T06:57:23.260-05:00","meta":{"lastUpdated":"2019-04-09T12:03:28.300830+00:00","versionId":"MTU1NDgxMTQwODMwMDgzMDAwMA"},"resourceType":"Observation","status":"final","subject":{"reference":"Patient/0accf4d2-156a-425c-8400-33c073a0f661"},"valueCodeableConcept":{"coding":[{"code":"266919005","display":"Never smoker","system":"http://snomed.info/sct"}],"text":"Never smoker"}}},{"resource":{"category":[{"coding":[{"code":"laboratory","display":"laboratory","system":"http://hl7.org/fhir/observation-category"}]}],"code":{"coding":[{"code":"4548-4","display":"Hemoglobin A1c/Hemoglobin.total in Blood","system":"http://loinc.org"}],"text":"Hemoglobin A1c/Hemoglobin.total in Blood"},"context":{"reference":"Encounter/82b893df-807a-4031-ad10-abbbb2c4e7db"},"effectiveDateTime":"2018-07-04T07:57:23-04:00","id":"07bf9c7f-a93d-4f29-90ec-5401038b8c98","issued":"2018-07-04T07:57:23.260-04:00","meta":{"lastUpdated":"2019-04-09T12:03:37.501979+00:00","versionId":"MTU1NDgxMTQxNzUwMTk3OTAwMA"},"resourceType":"Observation","status":"final","subject":{"reference":"Patient/0accf4d2-156a-425c-8400-33c073a0f661"},"valueQuantity":{"code":"%","system":"http://unitsofmeasure.org","unit":"%","value":5.297746961866336}}},{"resource":{"category":[{"coding":[{"code":"laboratory","display":"laboratory","system":"http://hl7.org/fhir/observation-category"}]}],"code":{"coding":[{"code":"14959-1","display":"Microalbumin Creatinine Ratio","system":"http://loinc.org"}],"text":"Microalbumin Creatinine Ratio"},"context":{"reference":"Encounter/6ef8598d-dcc2-4fed-8d35-f406fda5cd57"},"effectiveDateTime":"2016-12-07T06:57:23-05:00","id":"07f31670-6f4f-4326-b71c-e0f490e5b09b","issued":"2016-12-07T06:57:23.260-05:00","meta":{"lastUpdated":"2019-04-09T12:03:35.469226+00:00","versionId":"MTU1NDgxMTQxNTQ2OTIyNjAwMA"},"resourceType":"Observation","status":"final","subject":{"reference":"Patient/0accf4d2-156a-425c-8400-33c073a0f661"},"valueQuantity":{"code":"mg/g","system":"http://unitsofmeasure.org","unit":"mg/g","value":21.124708376517194}}},{"resource":{"category":[{"coding":[{"code":"survey","display":"survey","system":"http://hl7.org/fhir/observation-category"}]}],"code":{"coding":[{"code":"72166-2","display":"Tobacco smoking status NHIS","system":"http://loinc.org"}],"text":"Tobacco smoking status NHIS"},"context":{"reference":"Encounter/d8e5cd14-488a-4d6f-a12a-40c60610b517"},"effectiveDateTime":"2013-08-07T07:57:23-04:00","id":"07fe2684-ed12-4ae1-9386-219ac4108857","issued":"2013-08-07T07:57:23.260-04:00","meta":{"lastUpdated":"2019-04-09T12:03:30.325932+00:00","versionId":"MTU1NDgxMTQxMDMyNTkzMjAwMA"},"resourceType":"Observation","status":"final","subject":{"reference":"Patient/0accf4d2-156a-425c-8400-33c073a0f661"},"valueCodeableConcept":{"coding":[{"code":"266919005","display":"Never smoker","system":"http://snomed.info/sct"}],"text":"Never smoker"}}},{"resource":{"category":[{"coding":[{"code":"laboratory","display":"laboratory","system":"http://hl7.org/fhir/observation-category"}]}],"code":{"coding":[{"code":"14959-1","display":"Microalbumin Creatinine Ratio","system":"http://loinc.org"}],"text":"Microalbumin Creatinine Ratio"},"context":{"reference":"Encounter/18173b3f-27d9-4de1-9c8c-ee1a0ea31387"},"effectiveDateTime":"2012-10-10T07:57:23-04:00","id":"0800897c-ce4a-474a-bd4d-bf3aa2e5da4b","issued":"2012-10-10T07:57:23.260-04:00","meta":{"lastUpdated":"2019-04-09T12:03:29.358245+00:00","versionId":"MTU1NDgxMTQwOTM1ODI0NTAwMA"},"resourceType":"Observation","status":"final","subject":{"reference":"Patient/0accf4d2-156a-425c-8400-33c073a0f661"},"valueQuantity":{"code":"mg/g","system":"http://unitsofmeasure.org","unit":"mg/g","value":29.900895003274385}}},{"resource":{"category":[{"coding":[{"code":"laboratory","display":"laboratory","system":"http://hl7.org/fhir/observation-category"}]}],"code":{"coding":[{"code":"33914-3","display":"Estimated Glomerular Filtration Rate","system":"http://loinc.org"}],"text":"Estimated Glomerular Filtration Rate"},"context":{"reference":"Encounter/ff80e9b9-c9d4-4d51-9a0a-f2757518e1b7"},"effectiveDateTime":"2012-11-07T06:57:23-05:00","id":"080b71f6-a551-490f-9f30-e9015fabb665","issued":"2012-11-07T06:57:23.260-05:00","meta":{"lastUpdated":"2019-04-09T12:03:29.358364+00:00","versionId":"MTU1NDgxMTQwOTM1ODM2NDAwMA"},"resourceType":"Observation","status":"final","subject":{"reference":"Patient/0accf4d2-156a-425c-8400-33c073a0f661"},"valueQuantity":{"code":"mL/min/{1.73_m2}","system":"http://unitsofmeasure.org","unit":"mL/min/{1.73_m2}","value":58.18422577442629}}},{"resource":{"category":[{"coding":[{"code":"laboratory","display":"laboratory","system":"http://hl7.org/fhir/observation-category"}]}],"code":{"coding":[{"code":"38483-4","display":"Creatinine","system":"http://loinc.org"}],"text":"Creatinine"},"context":{"reference":"Encounter/8075aa3d-545e-4c34-aae0-72b8df9e4592"},"effectiveDateTime":"2018-12-05T06:57:23-05:00","id":"08329f8f-c7dc-4063-8104-c84a19514a08","issued":"2018-12-05T06:57:23.260-05:00","meta":{"lastUpdated":"2019-04-09T12:03:37.501983+00:00","versionId":"MTU1NDgxMTQxNzUwMTk4MzAwMA"},"resourceType":"Observation","status":"final","subject":{"reference":"Patient/0accf4d2-156a-425c-8400-33c073a0f661"},"valueQuantity":{"code":"mg/dL","system":"http://unitsofmeasure.org","unit":"mg/dL","value":2.1822609720488257}}},{"resource":{"category":[{"coding":[{"code":"laboratory","display":"laboratory","system":"http://hl7.org/fhir/observation-category"}]}],"code":{"coding":[{"code":"38483-4","display":"Creatinine","system":"http://loinc.org"}],"text":"Creatinine"},"context":{"reference":"Encounter/0558c0ab-d110-490b-8586-65ce3adf7dc6"},"effectiveDateTime":"2013-09-25T07:57:23-04:00","id":"085ccd93-2fcd-49f0-9f34-ea78cb7ca239","issued":"2013-09-25T07:57:23.260-04:00","meta":{"lastUpdated":"2019-04-09T12:03:30.329873+00:00","versionId":"MTU1NDgxMTQxMDMyOTg3MzAwMA"},"resourceType":"Observation","status":"final","subject":{"reference":"Patient/0accf4d2-156a-425c-8400-33c073a0f661"},"valueQuantity":{"code":"mg/dL","system":"http://unitsofmeasure.org","unit":"mg/dL","value":2.7241661802682606}}},{"resource":{"category":[{"coding":[{"code":"laboratory","display":"laboratory","system":"http://hl7.org/fhir/observation-category"}]}],"code":{"coding":[{"code":"18262-6","display":"Low Density Lipoprotein Cholesterol","system":"http://loinc.org"}],"text":"Low Density Lipoprotein Cholesterol"},"context":{"reference":"Encounter/0558c0ab-d110-490b-8586-65ce3adf7dc6"},"effectiveDateTime":"2013-09-25T07:57:23-04:00","id":"08737048-24ab-4c9e-8f0a-80b8a7356776","issued":"2013-09-25T07:57:23.260-04:00","meta":{"lastUpdated":"2019-04-09T12:03:30.327050+00:00","versionId":"MTU1NDgxMTQxMDMyNzA1MDAwMA"},"resourceType":"Observation","status":"final","subject":{"reference":"Patient/0accf4d2-156a-425c-8400-33c073a0f661"},"valueQuantity":{"code":"mg/dL","system":"http://unitsofmeasure.org","unit":"mg/dL","value":123.30221965912583}}},{"resource":{"category":[{"coding":[{"code":"laboratory","display":"laboratory","system":"http://hl7.org/fhir/observation-category"}]}],"code":{"coding":[{"code":"789-8","display":"Erythrocytes [#/volume] in Blood by Automated count","system":"http://loinc.org"}],"text":"Erythrocytes [#/volume] in Blood by Automated count"},"context":{"reference":"Encounter/9a753b25-a5a3-410a-b2ec-3bacac1203c3"},"effectiveDateTime":"2017-06-14T07:57:23-04:00","id":"0882b275-18ec-4990-a4a0-c3ff889691ad","issued":"2017-06-14T07:57:23.260-04:00","meta":{"lastUpdated":"2019-04-09T12:03:35.494911+00:00","versionId":"MTU1NDgxMTQxNTQ5NDkxMTAwMA"},"resourceType":"Observation","status":"final","subject":{"reference":"Patient/0accf4d2-156a-425c-8400-33c073a0f661"},"valueQuantity":{"code":"10*6/uL","system":"http://unitsofmeasure.org","unit":"10*6/uL","value":3.9419092217327476}}},{"resource":{"category":[{"coding":[{"code":"laboratory","display":"laboratory","system":"http://hl7.org/fhir/observation-category"}]}],"code":{"coding":[{"code":"6299-2","display":"Urea Nitrogen","system":"http://loinc.org"}],"text":"Urea Nitrogen"},"context":{"reference":"Encounter/c871699c-6149-4fff-b0e3-59e3c5ec87b0"},"effectiveDateTime":"2015-02-25T06:57:23-05:00","id":"08c630b3-58c3-459a-8d2b-43fef2a25791","issued":"2015-02-25T06:57:23.260-05:00","meta":{"lastUpdated":"2019-04-09T12:03:33.397951+00:00","versionId":"MTU1NDgxMTQxMzM5Nzk1MTAwMA"},"resourceType":"Observation","status":"final","subject":{"reference":"Patient/0accf4d2-156a-425c-8400-33c073a0f661"},"valueQuantity":{"code":"mg/dL","system":"http://unitsofmeasure.org","unit":"mg/dL","value":8.660357033134979}}},{"resource":{"category":[{"coding":[{"code":"vital-signs","display":"vital-signs","system":"http://hl7.org/fhir/observation-category"}]}],"code":{"coding":[{"code":"8302-2","display":"Body Height","system":"http://loinc.org"}],"text":"Body Height"},"context":{"reference":"Encounter/23df6fcc-4cb0-41ad-8ee5-dc9f35e8f02a"},"effectiveDateTime":"2012-02-01T06:57:23-05:00","id":"08d79ba7-8ac3-4d92-9308-8eebbe6e2c95","issued":"2012-02-01T06:57:23.260-05:00","meta":{"lastUpdated":"2019-04-09T12:03:28.287398+00:00","versionId":"MTU1NDgxMTQwODI4NzM5ODAwMA"},"resourceType":"Observation","status":"final","subject":{"reference":"Patient/0accf4d2-156a-425c-8400-33c073a0f661"},"valueQuantity":{"code":"cm","system":"http://unitsofmeasure.org","unit":"cm","value":178.92396891131287}}},{"resource":{"category":[{"coding":[{"code":"laboratory","display":"laboratory","system":"http://hl7.org/fhir/observation-category"}]}],"code":{"coding":[{"code":"38483-4","display":"Creatinine","system":"http://loinc.org"}],"text":"Creatinine"},"context":{"reference":"Encounter/6a138369-86ab-4256-b448-82b8fe3fd953"},"effectiveDateTime":"2014-03-05T06:57:23-05:00","id":"090d2dd3-f72b-4f99-a59f-b09aa2bf4346","issued":"2014-03-05T06:57:23.260-05:00","meta":{"lastUpdated":"2019-04-09T12:03:31.372616+00:00","versionId":"MTU1NDgxMTQxMTM3MjYxNjAwMA"},"resourceType":"Observation","status":"final","subject":{"reference":"Patient/0accf4d2-156a-425c-8400-33c073a0f661"},"valueQuantity":{"code":"mg/dL","system":"http://unitsofmeasure.org","unit":"mg/dL","value":4.404010628032323}}},{"resource":{"category":[{"coding":[{"code":"laboratory","display":"laboratory","system":"http://hl7.org/fhir/observation-category"}]}],"code":{"coding":[{"code":"33914-3","display":"Estimated Glomerular Filtration Rate","system":"http://loinc.org"}],"text":"Estimated Glomerular Filtration Rate"},"context":{"reference":"Encounter/e552d549-c916-493a-b70f-986636288805"},"effectiveDateTime":"2015-05-27T07:57:23-04:00","id":"096f51c5-fe85-44a3-bd76-2d772b6099c4","issued":"2015-05-27T07:57:23.260-04:00","meta":{"lastUpdated":"2019-04-09T12:03:33.405496+00:00","versionId":"MTU1NDgxMTQxMzQwNTQ5NjAwMA"},"resourceType":"Observation","status":"final","subject":{"reference":"Patient/0accf4d2-156a-425c-8400-33c073a0f661"},"valueQuantity":{"code":"mL/min/{1.73_m2}","system":"http://unitsofmeasure.org","unit":"mL/min/{1.73_m2}","value":43.72476004647356}}},{"resource":{"category":[{"coding":[{"code":"laboratory","display":"laboratory","system":"http://hl7.org/fhir/observation-category"}]}],"code":{"coding":[{"code":"6299-2","display":"Urea Nitrogen","system":"http://loinc.org"}],"text":"Urea Nitrogen"},"context":{"reference":"Encounter/698efea4-5011-4a9a-85e2-c3f6dd24ddf1"},"effectiveDateTime":"2014-04-02T07:57:23-04:00","id":"09935f28-ec9c-4fc7-8dcf-ed26a9d238d7","issued":"2014-04-02T07:57:23.260-04:00","meta":{"lastUpdated":"2019-04-09T12:03:31.378492+00:00","versionId":"MTU1NDgxMTQxMTM3ODQ5MjAwMA"},"resourceType":"Observation","status":"final","subject":{"reference":"Patient/0accf4d2-156a-425c-8400-33c073a0f661"},"valueQuantity":{"code":"mg/dL","system":"http://unitsofmeasure.org","unit":"mg/dL","value":18.301650446435303}}},{"resource":{"category":[{"coding":[{"code":"laboratory","display":"laboratory","system":"http://hl7.org/fhir/observation-category"}]}],"code":{"coding":[{"code":"6299-2","display":"Urea Nitrogen","system":"http://loinc.org"}],"text":"Urea Nitrogen"},"context":{"reference":"Encounter/65bbafda-c532-4599-a865-a3f0b5f98429"},"effectiveDateTime":"2013-12-25T06:57:23-05:00","id":"09e701e1-28e0-4ce4-803b-79c5737d8431","issued":"2013-12-25T06:57:23.260-05:00","meta":{"lastUpdated":"2019-04-09T12:03:31.361263+00:00","versionId":"MTU1NDgxMTQxMTM2MTI2MzAwMA"},"resourceType":"Observation","status":"final","subject":{"reference":"Patient/0accf4d2-156a-425c-8400-33c073a0f661"},"valueQuantity":{"code":"mg/dL","system":"http://unitsofmeasure.org","unit":"mg/dL","value":15.509605995546679}}},{"resource":{"category":[{"coding":[{"code":"laboratory","display":"laboratory","system":"http://hl7.org/fhir/observation-category"}]}],"code":{"coding":[{"code":"6299-2","display":"Urea Nitrogen","system":"http://loinc.org"}],"text":"Urea Nitrogen"},"context":{"reference":"Encounter/c7f341ff-b544-4a41-ac27-38dd36d17410"},"effectiveDateTime":"2012-08-29T07:57:23-04:00","id":"09f32e53-9ebb-4c6b-a9ae-e1733ec93935","issued":"2012-08-29T07:57:23.260-04:00","meta":{"lastUpdated":"2019-04-09T12:03:29.357706+00:00","versionId":"MTU1NDgxMTQwOTM1NzcwNjAwMA"},"resourceType":"Observation","status":"final","subject":{"reference":"Patient/0accf4d2-156a-425c-8400-33c073a0f661"},"valueQuantity":{"code":"mg/dL","system":"http://unitsofmeasure.org","unit":"mg/dL","value":10.24488929203137}}},{"resource":{"category":[{"coding":[{"code":"laboratory","display":"laboratory","system":"http://hl7.org/fhir/observation-category"}]}],"code":{"coding":[{"code":"14959-1","display":"Microalbumin Creatinine Ratio","system":"http://loinc.org"}],"text":"Microalbumin Creatinine Ratio"},"context":{"reference":"Encounter/6a138369-86ab-4256-b448-82b8fe3fd953"},"effectiveDateTime":"2014-03-05T06:57:23-05:00","id":"0a1f3390-f27f-4762-bf9d-47044a051c12","issued":"2014-03-05T06:57:23.260-05:00","meta":{"lastUpdated":"2019-04-09T12:03:31.357319+00:00","versionId":"MTU1NDgxMTQxMTM1NzMxOTAwMA"},"resourceType":"Observation","status":"final","subject":{"reference":"Patient/0accf4d2-156a-425c-8400-33c073a0f661"},"valueQuantity":{"code":"mg/g","system":"http://unitsofmeasure.org","unit":"mg/g","value":25.374952634165986}}},{"resource":{"category":[{"coding":[{"code":"survey","display":"survey","system":"http://hl7.org/fhir/observation-category"}]}],"code":{"coding":[{"code":"72166-2","display":"Tobacco smoking status NHIS","system":"http://loinc.org"}],"text":"Tobacco smoking status NHIS"},"context":{"reference":"Encounter/c0d2a28c-a94a-4079-98f9-d64d5827a2da"},"effectiveDateTime":"2011-01-12T06:57:23-05:00","id":"0a4823b4-f956-4fd6-93fc-8909980bc864","issued":"2011-01-12T06:57:23.260-05:00","meta":{"lastUpdated":"2019-04-09T12:03:27.252994+00:00","versionId":"MTU1NDgxMTQwNzI1Mjk5NDAwMA"},"resourceType":"Observation","status":"final","subject":{"reference":"Patient/0accf4d2-156a-425c-8400-33c073a0f661"},"valueCodeableConcept":{"coding":[{"code":"266919005","display":"Never smoker","system":"http://snomed.info/sct"}],"text":"Never smoker"}}},{"resource":{"category":[{"coding":[{"code":"vital-signs","display":"vital-signs","system":"http://hl7.org/fhir/observation-category"}]}],"code":{"coding":[{"code":"72514-3","display":"Pain severity - 0-10 verbal numeric rating [Score] - Reported","system":"http://loinc.org"}],"text":"Pain severity - 0-10 verbal numeric rating [Score] - Reported"},"context":{"reference":"Encounter/c0d2a28c-a94a-4079-98f9-d64d5827a2da"},"effectiveDateTime":"2011-01-12T06:57:23-05:00","id":"0a733cb5-a0c7-4453-9594-0ca2387b01f6","issued":"2011-01-12T06:57:23.260-05:00","meta":{"lastUpdated":"2019-04-09T12:03:27.243278+00:00","versionId":"MTU1NDgxMTQwNzI0MzI3ODAwMA"},"resourceType":"Observation","status":"final","subject":{"reference":"Patient/0accf4d2-156a-425c-8400-33c073a0f661"},"valueQuantity":{"code":"{score}","system":"http://unitsofmeasure.org","unit":"{score}","value":2.1563924318662426}}},{"resource":{"category":[{"coding":[{"code":"laboratory","display":"laboratory","system":"http://hl7.org/fhir/observation-category"}]}],"code":{"coding":[{"code":"6299-2","display":"Urea Nitrogen","system":"http://loinc.org"}],"text":"Urea Nitrogen"},"context":{"reference":"Encounter/18173b3f-27d9-4de1-9c8c-ee1a0ea31387"},"effectiveDateTime":"2012-10-10T07:57:23-04:00","id":"0a846574-f5de-4521-bee0-0e3070b0fb06","issued":"2012-10-10T07:57:23.260-04:00","meta":{"lastUpdated":"2019-04-09T12:03:29.353380+00:00","versionId":"MTU1NDgxMTQwOTM1MzM4MDAwMA"},"resourceType":"Observation","status":"final","subject":{"reference":"Patient/0accf4d2-156a-425c-8400-33c073a0f661"},"valueQuantity":{"code":"mg/dL","system":"http://unitsofmeasure.org","unit":"mg/dL","value":9.516798147353349}}},{"resource":{"category":[{"coding":[{"code":"vital-signs","display":"vital-signs","system":"http://hl7.org/fhir/observation-category"}]}],"code":{"coding":[{"code":"72514-3","display":"Pain severity - 0-10 verbal numeric rating [Score] - Reported","system":"http://loinc.org"}],"text":"Pain severity - 0-10 verbal numeric rating [Score] - Reported"},"context":{"reference":"Encounter/32d12e55-3005-4130-8639-37db5030ebc6"},"effectiveDateTime":"2018-05-09T07:57:23-04:00","id":"0aba27c9-8876-43ad-bd7d-eeab9cde562d","issued":"2018-05-09T07:57:23.260-04:00","meta":{"lastUpdated":"2019-04-09T12:03:36.519226+00:00","versionId":"MTU1NDgxMTQxNjUxOTIyNjAwMA"},"resourceType":"Observation","status":"final","subject":{"reference":"Patient/0accf4d2-156a-425c-8400-33c073a0f661"},"valueQuantity":{"code":"{score}","system":"http://unitsofmeasure.org","unit":"{score}","value":2.131553610777888}}},{"resource":{"category":[{"coding":[{"code":"laboratory","display":"laboratory","system":"http://hl7.org/fhir/observation-category"}]}],"code":{"coding":[{"code":"2085-9","display":"High Density Lipoprotein Cholesterol","system":"http://loinc.org"}],"text":"High Density Lipoprotein Cholesterol"},"context":{"reference":"Encounter/b70ffe0b-4ae1-4cd1-bf27-b88f0d56f5c7"},"effectiveDateTime":"2010-12-08T06:57:23-05:00","id":"0ad514db-293c-48a4-bef7-2e59813ece6d","issued":"2010-12-08T06:57:23.260-05:00","meta":{"lastUpdated":"2019-04-09T12:03:27.221704+00:00","versionId":"MTU1NDgxMTQwNzIyMTcwNDAwMA"},"resourceType":"Observation","status":"final","subject":{"reference":"Patient/0accf4d2-156a-425c-8400-33c073a0f661"},"valueQuantity":{"code":"mg/dL","system":"http://unitsofmeasure.org","unit":"mg/dL","value":57.8235569012528}}},{"resource":{"category":[{"coding":[{"code":"laboratory","display":"laboratory","system":"http://hl7.org/fhir/observation-category"}]}],"code":{"coding":[{"code":"4548-4","display":"Hemoglobin A1c/Hemoglobin.total in Blood","system":"http://loinc.org"}],"text":"Hemoglobin A1c/Hemoglobin.total in Blood"},"context":{"reference":"Encounter/32d12e55-3005-4130-8639-37db5030ebc6"},"effectiveDateTime":"2018-05-09T07:57:23-04:00","id":"0b7d6e3d-17e5-4705-b749-1b952d18f4dc","issued":"2018-05-09T07:57:23.260-04:00","meta":{"lastUpdated":"2019-04-09T12:03:36.519229+00:00","versionId":"MTU1NDgxMTQxNjUxOTIyOTAwMA"},"resourceType":"Observation","status":"final","subject":{"reference":"Patient/0accf4d2-156a-425c-8400-33c073a0f661"},"valueQuantity":{"code":"%","system":"http://unitsofmeasure.org","unit":"%","value":5.297746961866336}}}],"link":[{"url":"https://syntheticmass.mitre.org/v1/fhir/Patient/0accf4d2-156a-425c-8400-33c073a0f661/$everything?_count=100&page_token=CoIBcHJvamVjdHMvc3ludGhlYS9sb2NhdGlvbnMvdXMtY2VudHJhbDEvZGF0YXNldHMvMjAxOTAyL2ZoaXJTdG9yZXMvc3ludGhldGljLW1hc3MvZmhpci9QYXRpZW50LzBhY2NmNGQyLTE1NmEtNDI1Yy04NDAwLTMzYzA3M2EwZjY2MSD0Aw%3D%3D","relation":"previous"},{"url":"https://syntheticmass.mitre.org/v1/fhir/Patient/0accf4d2-156a-425c-8400-33c073a0f661/$everything?_count=100&page_token=CoIBcHJvamVjdHMvc3ludGhlYS9sb2NhdGlvbnMvdXMtY2VudHJhbDEvZGF0YXNldHMvMjAxOTAyL2ZoaXJTdG9yZXMvc3ludGhldGljLW1hc3MvZmhpci9QYXRpZW50LzBhY2NmNGQyLTE1NmEtNDI1Yy04NDAwLTMzYzA3M2EwZjY2MSC8BQ%3D%3D","relation":"next"}],"total":1893}
