{"resourceType":"Bundle","type":"searchset","entry":[{"resource":{"billablePeriod":{"end":"1985-10-02T21:01:34-04:00","start":"1984-10-02T21:01:34-04:00"},"careTeam":[{"provider":{"identifier":{"system":"http://hl7.org/fhir/sid/us-npi","value":"99999999"}},"role":{"coding":[{"code":"primary","display":"Primary Care Practitioner","system":"http://hl7.org/fhir/claimcareteamrole"}]},"sequence":1}],"claim":{"reference":"Claim/4269a9b8-7c9d-4054-81f2-4c6a09b7418a"},"contained":[{"id":"1","intent":"order","recipient":[{"identifier":{"system":"http://hl7.org/fhir/sid/us-npi","value":"99999999"}}],"requester":{"agent":{"identifier":{"system":"http://hl7.org/fhir/sid/us-npi","value":"99999999"}}},"resourceType":"ReferralRequest","status":"completed","subject":{"reference":"Patient/0b03e22a-28fc-4287-a7ad-dd3ba64d985a"}},{"id":"coverage","resourceType":"Coverage","type":{"text":"private"}}],"created":"1984-10-02T21:01:34-04:00","diagnosis":[{"diagnosisReference":{"reference":"Condition/4c2821b3-2dc0-4448-bb2b-e34645a86b31"},"extension":[{"url":"https://bluebutton.cms.gov/assets/ig/StructureDefinition-bluebutton-inpatient-clm-poa-ind-sw1-extension","valueCoding":{"code":"Y","display":"Diagnosis present at time of admission","system":"https://bluebutton.cms.gov/assets/ig/CodeSystem-clm-poa-ind-sw1"}}],"sequence":1,"type":[{"coding":[{"code":"principal","system":"https://bluebutton.cms.gov/resources/codesystem/diagnosis-type"}]}]}],"id":"cc6d4cba-4dc0-4214-877a-f5363d8ec8ff","identifier":[{"system":"https://bluebutton.cms.gov/resources/variables/clm_id","value":"4269a9b8-7c9d-4054-81f2-4c6a09b7418a"},{"system":"https://bluebutton.cms.gov/resources/identifier/claim-group","value":"99999999999"}],"insurance":{"coverage":{"reference":"#coverage"}},"item":[{"category":{"coding":[{"code":"1","display":"Medical care","system":"https://bluebutton.cms.gov/resources/variables/line_cms_type_srvc_cd"}]},"encounter":[{"reference":"Encounter/57d623ae-96be-49c3-a922-7996d424c13b"}],"locationCodeableConcept":{"coding":[{"code":"21","display":"Inpatient Hospital","system":"https://bluebutton.cms.gov/resources/variables/line_place_of_srvc_cd"}]},"sequence":1,"servicedPeriod":{"end":"1984-10-02T21:01:34-04:00","start":"1984-10-02T20:31:34-04:00"}},{"category":{"coding":[{"code":"1","display":"Medical care","system":"https://bluebutton.cms.gov/resources/variables/line_cms_type_srvc_cd"}]},"diagnosisLinkId":[1],"locationCodeableConcept":{"coding":[{"code":"21","display":"Inpatient Hospital","system":"https://bluebutton.cms.gov/resources/variables/line_place_of_srvc_cd"}]},"sequence":2,"servicedPeriod":{"end":"1984-10-02T21:01:34-04:00","start":"1984-10-02T20:31:34-04:00"}}],"meta":{"lastUpdated":"2019-04-09T12:03:10.913630+00:00","versionId":"MTU1NDgxMTM5MDkxMzYzMDAwMA"},"organization":{"identifier":{"value":"4f8b2690-c8a0-47d4-9f15-6aac709d5c5e"}},"patient":{"reference":"Patient/0b03e22a-28fc-4287-a7ad-dd3ba64d985a"},"payment":{"amount":{"code":"USD","system":"urn:iso:std:iso:4217","value":0}},"provider":{"identifier":{"value":"21254899-c2f1-4ed4-a21c-c6b1bc912f1c"}},"referral":{"reference":"#1"},"resourceType":"ExplanationOfBenefit","status":"active","totalCost":{"code":"USD","system":"urn:iso:std:iso:4217","value":125},"type":{"coding":[{"code":"71","display":"Local carrier non-durable medical equipment, prosthetics, orthotics, and supplies (DMEPOS) claim","system":"https://bluebutton.cms.gov/resources/variables/nch_clm_type_cd"},{"code":"CARRIER","display":"EOB Type","system":"https://bluebutton.cms.gov/resources/codesystem/eob-type"},{"code":"professional","display":"Claim Type","system":"http://hl7.org/fhir/ex-claimtype"},{"code":"O","display":"Part B physician/supplier claim record (processed by local carriers; can include DMEPOS services)","system":"https://bluebutton.cms.gov/resources/variables/nch_near_line_rec_ident_cd"}]}}},{"resource":{"billablePeriod":{"end":"2016-05-05T21:01:34-04:00","start":"2015-05-05T21:01:34-04:00"},"careTeam":[{"provider":{"identifier":{"system":"http://hl7.org/fhir/sid/us-npi","value":"99999999"}},"role":{"coding":[{"code":"primary","display":"Primary Care Practitioner","system":"http://hl7.org/fhir/claimcareteamrole"}]},"sequence":1}],"claim":{"reference":"Claim/37eee431-06b9-44ad-8e4c-d1c01d8e0c46"},"contained":[{"id":"1","intent":"order","recipient":[{"identifier":{"system":"http://hl7.org/fhir/sid/us-npi","value":"99999999"}}],"requester":{"agent":{"identifier":{"system":"http://hl7.org/fhir/sid/us-npi","value":"99999999"}}},"resourceType":"ReferralRequest","status":"completed","subject":{"reference":"Patient/0b03e22a-28fc-4287-a7ad-dd3ba64d985a"}},{"id":"coverage","resourceType":"Coverage","type":{"text":"medicare"}}],"created":"2015-05-05T21:01:34-04:00","id":"d9cd0773-6e72-45af-9b34-6a095720cbed","identifier":[{"system":"https://bluebutton.cms.gov/resources/variables/clm_id","value":"37eee431-06b9-44ad-8e4c-d1c01d8e0c46"},{"system":"https://bluebutton.cms.gov/resources/identifier/claim-group","value":"99999999999"}],"insurance":{"coverage":{"reference":"#coverage"}},"item":[{"category":{"coding":[{"code":"1","display":"Medical care","system":"https://bluebutton.cms.gov/resources/variables/line_cms_type_srvc_cd"}]},"encounter":[{"reference":"Encounter/d93a40da-1b46-4f48-9a38-de2d24a0ae4a"}],"locationCodeableConcept":{"coding":[{"code":"21","display":"Inpatient Hospital","system":"https://bluebutton.cms.gov/resources/variables/line_place_of_srvc_cd"}]},"sequence":1,"servicedPeriod":{"end":"2015-05-05T21:01:34-04:00","start":"2015-05-05T20:31:34-04:00"}},{"adjudication":[{"amount":{"code":"USD","system":"urn:iso:std:iso:4217","value":28.104000000000003},"category":{"coding":[{"code":"https://bluebutton.cms.gov/resources/variables/line_coinsrnc_amt","display":"Line Beneficiary Coinsurance Amount","system":"https://bluebutton.cms.gov/resources/codesystem/adjudication"}]}},{"amount":{"code":"USD","system":"urn:iso:std:iso:4217","value":112.41600000000001},"category":{"coding":[{"code":"https://bluebutton.cms.gov/resources/variables/line_prvdr_pmt_amt","display":"Line Provider Payment Amount","system":"https://bluebutton.cms.gov/resources/codesystem/adjudication"}]}},{"amount":{"code":"USD","system":"urn:iso:std:iso:4217","value":140.52},"category":{"coding":[{"code":"https://bluebutton.cms.gov/resources/variables/line_sbmtd_chrg_amt","display":"Line Submitted Charge Amount","system":"https://bluebutton.cms.gov/resources/codesystem/adjudication"}]}},{"amount":{"code":"USD","system":"urn:iso:std:iso:4217","value":140.52},"category":{"coding":[{"code":"https://bluebutton.cms.gov/resources/variables/line_alowd_chrg_amt","display":"Line Allowed Charge Amount","system":"https://bluebutton.cms.gov/resources/codesystem/adjudication"}]}},{"amount":{"code":"USD","system":"urn:iso:std:iso:4217","value":0},"category":{"coding":[{"code":"https://bluebutton.cms.gov/resources/variables/line_bene_ptb_ddctbl_amt","display":"Line Beneficiary Part B Deductible Amount","system":"https://bluebutton.cms.gov/resources/codesystem/adjudication"}]}},{"category":{"coding":[{"code":"https://bluebutton.cms.gov/resources/variables/line_prcsg_ind_cd","display":"Line Processing Indicator Code","system":"https://bluebutton.cms.gov/resources/codesystem/adjudication"}]},"reason":{"coding":[{"code":"A","display":"Allowed","system":"https://bluebutton.cms.gov/resources/variables/line_prcsg_ind_cd"}]}}],"category":{"coding":[{"code":"1","display":"Medical care","system":"https://bluebutton.cms.gov/resources/variables/line_cms_type_srvc_cd"}]},"informationLinkId":[1],"locationCodeableConcept":{"coding":[{"code":"21","display":"Inpatient Hospital","system":"https://bluebutton.cms.gov/resources/variables/line_place_of_srvc_cd"}]},"net":{"code":"USD","system":"urn:iso:std:iso:4217","value":140.52},"sequence":2,"servicedPeriod":{"end":"2015-05-05T21:01:34-04:00","start":"2015-05-05T20:31:34-04:00"}},{"adjudication":[{"amount":{"code":"USD","system":"urn:iso:std:iso:4217","value":150.51600000000002},"category":{"coding":[{"code":"https://bluebutton.cms.gov/resources/variables/line_coinsrnc_amt","display":"Line Beneficiary Coinsurance Amount","system":"https://bluebutton.cms.gov/resources/codesystem/adjudication"}]}},{"amount":{"code":"USD","system":"urn:iso:std:iso:4217","value":602.0640000000001},"category":{"coding":[{"code":"https://bluebutton.cms.gov/resources/variables/line_prvdr_pmt_amt","display":"Line Provider Payment Amount","system":"https://bluebutton.cms.gov/resources/codesystem/adjudication"}]}},{"amount":{"code":"USD","system":"urn:iso:std:iso:4217","value":752.58},"category":{"coding":[{"code":"https://bluebutton.cms.gov/resources/variables/line_sbmtd_chrg_amt","display":"Line Submitted Charge Amount","system":"https://bluebutton.cms.gov/resources/codesystem/adjudication"}]}},{"amount":{"code":"USD","system":"urn:iso:std:iso:4217","value":752.58},"category":{"coding":[{"code":"https://bluebutton.cms.gov/resources/variables/line_alowd_chrg_amt","display":"Line Allowed Charge Amount","system":"https://bluebutton.cms.gov/resources/codesystem/adjudication"}]}},{"amount":{"code":"USD","system":"urn:iso:std:iso:4217","value":0},"category":{"coding":[{"code":"https://bluebutton.cms.gov/resources/variables/line_bene_ptb_ddctbl_amt","display":"Line Beneficiary Part B Deductible Amount","system":"https://bluebutton.cms.gov/resources/codesystem/adjudication"}]}},{"category":{"coding":[{"code":"https://bluebutton.cms.gov/resources/variables/line_prcsg_ind_cd","display":"Line Processing Indicator Code","system":"https://bluebutton.cms.gov/resources/codesystem/adjudication"}]},"reason":{"coding":[{"code":"A","display":"Allowed","system":"https://bluebutton.cms.gov/resources/variables/line_prcsg_ind_cd"}]}}],"category":{"coding":[{"code":"1","display":"Medical care","system":"https://bluebutton.cms.gov/resources/variables/line_cms_type_srvc_cd"}]},"locationCodeableConcept":{"coding":[{"code":"21","display":"Inpatient Hospital","system":"https://bluebutton.cms.gov/resources/variables/line_place_of_srvc_cd"}]},"net":{"code":"USD","system":"urn:iso:std:iso:4217","value":752.58},"sequence":3,"service":{"coding":[{"code":"428191000124101","system":"http://snomed.info/sct","version":"v1"}]},"servicedPeriod":{"end":"2015-05-05T21:01:34-04:00","start":"2015-05-05T20:31:34-04:00"}}],"meta":{"lastUpdated":"2019-04-09T12:03:12.036414+00:00","versionId":"MTU1NDgxMTM5MjAzNjQxNDAwMA"},"organization":{"identifier":{"value":"4f8b2690-c8a0-47d4-9f15-6aac709d5c5e"}},"patient":{"reference":"Patient/0b03e22a-28fc-4287-a7ad-dd3ba64d985a"},"payment":{"amount":{"code":"USD","system":"urn:iso:std:iso:4217","value":714.4800000000001}},"provider":{"identifier":{"value":"21254899-c2f1-4ed4-a21c-c6b1bc912f1c"}},"referral":{"reference":"#1"},"resourceType":"ExplanationOfBenefit","status":"active","totalCost":{"code":"USD","system":"urn:iso:std:iso:4217","value":1018.1},"type":{"coding":[{"code":"71","display":"Local carrier non-durable medical equipment, prosthetics, orthotics, and supplies (DMEPOS) claim","system":"https://bluebutton.cms.gov/resources/variables/nch_clm_type_cd"},{"code":"CARRIER","display":"EOB Type","system":"https://bluebutton.cms.gov/resources/codesystem/eob-type"},{"code":"professional","display":"Claim Type","system":"http://hl7.org/fhir/ex-claimtype"},{"code":"O","display":"Part B physician/supplier claim record (processed by local carriers; can include DMEPOS services)","system":"https://bluebutton.cms.gov/resources/variables/nch_near_line_rec_ident_cd"}]}}},{"resource":{"billablePeriod":{"end":"2018-05-16T21:01:34-04:00","start":"2017-05-16T21:01:34-04:00"},"careTeam":[{"provider":{"identifier":{"system":"http://hl7.org/fhir/sid/us-npi","value":"99999999"}},"role":{"coding":[{"code":"primary","display":"Primary Care Practitioner","system":"http://hl7.org/fhir/claimcareteamrole"}]},"sequence":1}],"claim":{"reference":"Claim/67d44574-f15b-431e-b5a3-a9a23a74491b"},"contained":[{"id":"1","intent":"order","recipient":[{"identifier":{"system":"http://hl7.org/fhir/sid/us-npi","value":"99999999"}}],"requester":{"agent":{"identifier":{"system":"http://hl7.org/fhir/sid/us-npi","value":"99999999"}}},"resourceType":"ReferralRequest","status":"completed","subject":{"reference":"Patient/0b03e22a-28fc-4287-a7ad-dd3ba64d985a"}},{"id":"coverage","resourceType":"Coverage","type":{"text":"medicare"}}],"created":"2017-05-16T21:01:34-04:00","id":"e264ac9b-b1aa-447a-8dbe-4a51d72bd342","identifier":[{"system":"https://bluebutton.cms.gov/resources/variables/clm_id","value":"67d44574-f15b-431e-b5a3-a9a23a74491b"},{"system":"https://bluebutton.cms.gov/resources/identifier/claim-group","value":"99999999999"}],"insurance":{"coverage":{"reference":"#coverage"}},"item":[{"category":{"coding":[{"code":"1","display":"Medical care","system":"https://bluebutton.cms.gov/resources/variables/line_cms_type_srvc_cd"}]},"encounter":[{"reference":"Encounter/5d87b7dc-7929-42e8-bbca-b6ffee7584a6"}],"locationCodeableConcept":{"coding":[{"code":"21","display":"Inpatient Hospital","system":"https://bluebutton.cms.gov/resources/variables/line_place_of_srvc_cd"}]},"sequence":1,"servicedPeriod":{"end":"2017-05-16T21:01:34-04:00","start":"2017-05-16T20:31:34-04:00"}},{"adjudication":[{"amount":{"code":"USD","system":"urn:iso:std:iso:4217","value":28.104000000000003},"category":{"coding":[{"code":"https://bluebutton.cms.gov/resources/variables/line_coinsrnc_amt","display":"Line Beneficiary Coinsurance Amount","system":"https://bluebutton.cms.gov/resources/codesystem/adjudication"}]}},{"amount":{"code":"USD","system":"urn:iso:std:iso:4217","value":112.41600000000001},"category":{"coding":[{"code":"https://bluebutton.cms.gov/resources/variables/line_prvdr_pmt_amt","display":"Line Provider Payment Amount","system":"https://bluebutton.cms.gov/resources/codesystem/adjudication"}]}},{"amount":{"code":"USD","system":"urn:iso:std:iso:4217","value":140.52},"category":{"coding":[{"code":"https://bluebutton.cms.gov/resources/variables/line_sbmtd_chrg_amt","display":"Line Submitted Charge Amount","system":"https://bluebutton.cms.gov/resources/codesystem/adjudication"}]}},{"amount":{"code":"USD","system":"urn:iso:std:iso:4217","value":140.52},"category":{"coding":[{"code":"https://bluebutton.cms.gov/resources/variables/line_alowd_chrg_amt","display":"Line Allowed Charge Amount","system":"https://bluebutton.cms.gov/resources/codesystem/adjudication"}]}},{"amount":{"code":"USD","system":"urn:iso:std:iso:4217","value":0},"category":{"coding":[{"code":"https://bluebutton.cms.gov/resources/variables/line_bene_ptb_ddctbl_amt","display":"Line Beneficiary Part B Deductible Amount","system":"https://bluebutton.cms.gov/resources/codesystem/adjudication"}]}},{"category":{"coding":[{"code":"https://bluebutton.cms.gov/resources/variables/line_prcsg_ind_cd","display":"Line Processing Indicator Code","system":"https://bluebutton.cms.gov/resources/codesystem/adjudication"}]},"reason":{"coding":[{"code":"A","display":"Allowed","system":"https://bluebutton.cms.gov/resources/variables/line_prcsg_ind_cd"}]}}],"category":{"coding":[{"code":"1","display":"Medical care","system":"https://bluebutton.cms.gov/resources/variables/line_cms_type_srvc_cd"}]},"informationLinkId":[1],"locationCodeableConcept":{"coding":[{"code":"21","display":"Inpatient Hospital","system":"https://bluebutton.cms.gov/resources/variables/line_place_of_srvc_cd"}]},"net":{"code":"USD","system":"urn:iso:std:iso:4217","value":140.52},"sequence":2,"servicedPeriod":{"end":"2017-05-16T21:01:34-04:00","start":"2017-05-16T20:31:34-04:00"}},{"adjudication":[{"amount":{"code":"USD","system":"urn:iso:std:iso:4217","value":101.65},"category":{"coding":[{"code":"https://bluebutton.cms.gov/resources/variables/line_coinsrnc_amt","display":"Line Beneficiary Coinsurance Amount","system":"https://bluebutton.cms.gov/resources/codesystem/adjudication"}]}},{"amount":{"code":"USD","system":"urn:iso:std:iso:4217","value":406.6},"category":{"coding":[{"code":"https://bluebutton.cms.gov/resources/variables/line_prvdr_pmt_amt","display":"Line Provider Payment Amount","system":"https://bluebutton.cms.gov/resources/codesystem/adjudication"}]}},{"amount":{"code":"USD","system":"urn:iso:std:iso:4217","value":508.25},"category":{"coding":[{"code":"https://bluebutton.cms.gov/resources/variables/line_sbmtd_chrg_amt","display":"Line Submitted Charge Amount","system":"https://bluebutton.cms.gov/resources/codesystem/adjudication"}]}},{"amount":{"code":"USD","system":"urn:iso:std:iso:4217","value":508.25},"category":{"coding":[{"code":"https://bluebutton.cms.gov/resources/variables/line_alowd_chrg_amt","display":"Line Allowed Charge Amount","system":"https://bluebutton.cms.gov/resources/codesystem/adjudication"}]}},{"amount":{"code":"USD","system":"urn:iso:std:iso:4217","value":0},"category":{"coding":[{"code":"https://bluebutton.cms.gov/resources/variables/line_bene_ptb_ddctbl_amt","display":"Line Beneficiary Part B Deductible Amount","system":"https://bluebutton.cms.gov/resources/codesystem/adjudication"}]}},{"category":{"coding":[{"code":"https://bluebutton.cms.gov/resources/variables/line_prcsg_ind_cd","display":"Line Processing Indicator Code","system":"https://bluebutton.cms.gov/resources/codesystem/adjudication"}]},"reason":{"coding":[{"code":"A","display":"Allowed","system":"https://bluebutton.cms.gov/resources/variables/line_prcsg_ind_cd"}]}}],"category":{"coding":[{"code":"1","display":"Medical care","system":"https://bluebutton.cms.gov/resources/variables/line_cms_type_srvc_cd"}]},"locationCodeableConcept":{"coding":[{"code":"21","display":"Inpatient Hospital","system":"https://bluebutton.cms.gov/resources/variables/line_place_of_srvc_cd"}]},"net":{"code":"USD","system":"urn:iso:std:iso:4217","value":508.25},"sequence":3,"service":{"coding":[{"code":"428191000124101","system":"http://snomed.info/sct","version":"v1"}]},"servicedPeriod":{"end":"2017-05-16T21:01:34-04:00","start":"2017-05-16T20:31:34-04:00"}}],"meta":{"lastUpdated":"2019-04-09T12:03:13.000194+00:00","versionId":"MTU1NDgxMTM5MzAwMDE5NDAwMA"},"organization":{"identifier":{"value":"4f8b2690-c8a0-47d4-9f15-6aac709d5c5e"}},"patient":{"reference":"Patient/0b03e22a-28fc-4287-a7ad-dd3ba64d985a"},"payment":{"amount":{"code":"USD","system":"urn:iso:std:iso:4217","value":519.0160000000001}},"provider":{"identifier":{"value":"21254899-c2f1-4ed4-a21c-c6b1bc912f1c"}},"referral":{"reference":"#1"},"resourceType":"ExplanationOfBenefit","status":"active","totalCost":{"code":"USD","system":"urn:iso:std:iso:4217","value":773.77},"type":{"coding":[{"code":"71","display":"Local carrier non-durable medical equipment, prosthetics, orthotics, and supplies (DMEPOS) claim","system":"https://bluebutton.cms.gov/resources/variables/nch_clm_type_cd"},{"code":"CARRIER","display":"EOB Type","system":"https://bluebutton.cms.gov/resources/codesystem/eob-type"},{"code":"professional","display":"Claim Type","system":"http://hl7.org/fhir/ex-claimtype"},{"code":"O","display":"Part B physician/supplier claim record (processed by local carriers; can include DMEPOS services)","system":"https://bluebutton.cms.gov/resources/variables/nch_near_line_rec_ident_cd"}]}}},{"resource":{"billablePeriod":{"end":"2017-05-10T20:46:34-04:00","start":"2016-05-10T20:46:34-04:00"},"careTeam":[{"provider":{"identifier":{"system":"http://hl7.org/fhir/sid/us-npi","value":"99999999"}},"role":{"coding":[{"code":"primary","display":"Primary Care Practitioner","system":"http://hl7.org/fhir/claimcareteamrole"}]},"sequence":1}],"claim":{"reference":"Claim/63cafba5-59c8-4d8f-9f47-6a5c021c625f"},"contained":[{"id":"1","intent":"order","recipient":[{"identifier":{"system":"http://hl7.org/fhir/sid/us-npi","value":"99999999"}}],"requester":{"agent":{"identifier":{"system":"http://hl7.org/fhir/sid/us-npi","value":"99999999"}}},"resourceType":"ReferralRequest","status":"completed","subject":{"reference":"Patient/0b03e22a-28fc-4287-a7ad-dd3ba64d985a"}},{"id":"coverage","resourceType":"Coverage","type":{"text":"medicare"}}],"created":"2016-05-10T20:46:34-04:00","id":"f28d8e56-d20e-436f-8feb-ac08c2126713","identifier":[{"system":"https://bluebutton.cms.gov/resources/variables/clm_id","value":"63cafba5-59c8-4d8f-9f47-6a5c021c625f"},{"system":"https://bluebutton.cms.gov/resources/identifier/claim-group","value":"99999999999"}],"insurance":{"coverage":{"reference":"#coverage"}},"item":[{"category":{"coding":[{"code":"1","display":"Medical care","system":"https://bluebutton.cms.gov/resources/variables/line_cms_type_srvc_cd"}]},"encounter":[{"reference":"Encounter/dfb83232-820a-4d46-9e8e-a7102efe9adc"}],"locationCodeableConcept":{"coding":[{"code":"21","display":"Inpatient Hospital","system":"https://bluebutton.cms.gov/resources/variables/line_place_of_srvc_cd"}]},"sequence":1,"servicedPeriod":{"end":"2016-05-10T20:46:34-04:00","start":"2016-05-10T20:31:34-04:00"}},{"adjudication":[{"amount":{"code":"USD","system":"urn:iso:std:iso:4217","value":28.104000000000003},"category":{"coding":[{"code":"https://bluebutton.cms.gov/resources/variables/line_coinsrnc_amt","display":"Line Beneficiary Coinsurance Amount","system":"https://bluebutton.cms.gov/resources/codesystem/adjudication"}]}},{"amount":{"code":"USD","system":"urn:iso:std:iso:4217","value":112.41600000000001},"category":{"coding":[{"code":"https://bluebutton.cms.gov/resources/variables/line_prvdr_pmt_amt","display":"Line Provider Payment Amount","system":"https://bluebutton.cms.gov/resources/codesystem/adjudication"}]}},{"amount":{"code":"USD","system":"urn:iso:std:iso:4217","value":140.52},"category":{"coding":[{"code":"https://bluebutton.cms.gov/resources/variables/line_sbmtd_chrg_amt","display":"Line Submitted Charge Amount","system":"https://bluebutton.cms.gov/resources/codesystem/adjudication"}]}},{"amount":{"code":"USD","system":"urn:iso:std:iso:4217","value":140.52},"category":{"coding":[{"code":"https://bluebutton.cms.gov/resources/variables/line_alowd_chrg_amt","display":"Line Allowed Charge Amount","system":"https://bluebutton.cms.gov/resources/codesystem/adjudication"}]}},{"amount":{"code":"USD","system":"urn:iso:std:iso:4217","value":0},"category":{"coding":[{"code":"https://bluebutton.cms.gov/resources/variables/line_bene_ptb_ddctbl_amt","display":"Line Beneficiary Part B Deductible Amount","system":"https://bluebutton.cms.gov/resources/codesystem/adjudication"}]}},{"category":{"coding":[{"code":"https://bluebutton.cms.gov/resources/variables/line_prcsg_ind_cd","display":"Line Processing Indicator Code","system":"https://bluebutton.cms.gov/resources/codesystem/adjudication"}]},"reason":{"coding":[{"code":"A","display":"Allowed","system":"https://bluebutton.cms.gov/resources/variables/line_prcsg_ind_cd"}]}}],"category":{"coding":[{"code":"1","display":"Medical care","system":"https://bluebutton.cms.gov/resources/variables/line_cms_type_srvc_cd"}]},"informationLinkId":[1],"locationCodeableConcept":{"coding":[{"code":"21","display":"Inpatient Hospital","system":"https://bluebutton.cms.gov/resources/variables/line_place_of_srvc_cd"}]},"net":{"code":"USD","system":"urn:iso:std:iso:4217","value":140.52},"sequence":2,"servicedPeriod":{"end":"2016-05-10T20:46:34-04:00","start":"2016-05-10T20:31:34-04:00"}}],"meta":{"lastUpdated":"2019-04-09T12:03:12.035940+00:00","versionId":"MTU1NDgxMTM5MjAzNTk0MDAwMA"},"organization":{"identifier":{"value":"4f8b2690-c8a0-47d4-9f15-6aac709d5c5e"}},"patient":{"reference":"Patient/0b03e22a-28fc-4287-a7ad-dd3ba64d985a"},"payment":{"amount":{"code":"USD","system":"urn:iso:std:iso:4217","value":112.41600000000001}},"provider":{"identifier":{"value":"21254899-c2f1-4ed4-a21c-c6b1bc912f1c"}},"referral":{"reference":"#1"},"resourceType":"ExplanationOfBenefit","status":"active","totalCost":{"code":"USD","system":"urn:iso:std:iso:4217","value":265.52},"type":{"coding":[{"code":"71","display":"Local carrier non-durable medical equipment, prosthetics, orthotics, and supplies (DMEPOS) claim","system":"https://bluebutton.cms.gov/resources/variables/nch_clm_type_cd"},{"code":"CARRIER","display":"EOB Type","system":"https://bluebutton.cms.gov/resources/codesystem/eob-type"},{"code":"professional","display":"Claim Type","system":"http://hl7.org/fhir/ex-claimtype"},{"code":"O","display":"Part B physician/supplier claim record (processed by local carriers; can include DMEPOS services)","system":"https://bluebutton.cms.gov/resources/variables/nch_near_line_rec_ident_cd"}]}}},{"resource":{"billablePeriod":{"end":"1997-04-17T20:46:34-04:00","extension":[{"url":"https://bluebutton.cms.gov/assets/ig/StructureDefinition-bluebutton-inpatient-claim-query-cd-extension","valueCoding":{"code":"3","display":"Final Bill","system":"https://bluebutton.cms.gov/assets/ig/ValueSet-claim-query-cd"}}],"start":"1996-04-17T20:46:34-04:00"},"careTeam":[{"provider":{"identifier":{"system":"http://hl7.org/fhir/sid/us-npi","value":"99999999"}},"role":{"coding":[{"code":"primary","display":"Primary Care Practitioner","system":"http://hl7.org/fhir/claimcareteamrole"}]},"sequence":1}],"contained":[{"id":"coverage","resourceType":"Coverage","type":{"text":"private"}}],"diagnosis":[{"diagnosisReference":{"reference":"Condition/ae2f9b2f-05aa-4f3e-a225-499333425086"},"extension":[{"url":"https://bluebutton.cms.gov/assets/ig/StructureDefinition-bluebutton-inpatient-clm-poa-ind-sw1-extension","valueCoding":{"code":"Y","display":"Diagnosis present at time of admission","system":"https://bluebutton.cms.gov/assets/ig/CodeSystem-clm-poa-ind-sw1"}}],"sequence":1,"type":[{"coding":[{"code":"principal","system":"https://bluebutton.cms.gov/resources/codesystem/diagnosis-type"}]}]}],"extension":[{"url":"https://bluebutton.cms.gov/assets/ig/StructureDefinition-bluebutton-inpatient-ime-op-clm-val-amt-extension","valueMoney":{"code":"USD","system":"urn:iso:std:iso:4217","value":400}},{"url":"https://bluebutton.cms.gov/assets/ig/StructureDefinition-bluebutton-inpatient-dsh-op-clm-val-amt-extension","valueMoney":{"code":"USD","system":"urn:iso:std:iso:4217","value":0}},{"url":"https://bluebutton.cms.gov/assets/ig/StructureDefinition-bluebutton-inpatient-clm-pass-thru-per-diem-amt-extension","valueMoney":{"code":"USD","system":"urn:iso:std:iso:4217","value":0}},{"url":"https://bluebutton.cms.gov/assets/ig/StructureDefinition-bluebutton-inpatient-nch-profnl-cmpnt-chrg-amt-extension","valueMoney":{"code":"USD","system":"urn:iso:std:iso:4217","value":0}},{"url":"https://bluebutton.cms.gov/assets/ig/StructureDefinition-bluebutton-inpatient-clm-tot-pps-cptl-amt-extension","valueMoney":{"code":"USD","system":"urn:iso:std:iso:4217","value":0}},{"url":"https://bluebutton.cms.gov/assets/ig/StructureDefinition-bluebutton-inpatient-nch-bene-ip-ddctbl-amt-extension","valueMoney":{"code":"USD","system":"urn:iso:std:iso:4217","value":0}},{"url":"https://bluebutton.cms.gov/assets/ig/StructureDefinition-bluebutton-inpatient-nch-bene-pta-coinsrnc-lblty-amt-extension","valueMoney":{"code":"USD","system":"urn:iso:std:iso:4217","value":0}},{"url":"https://bluebutton.cms.gov/assets/ig/StructureDefinition-bluebutton-inpatient-nch-ip-ncvrd-chrg-amt-extension","valueMoney":{"code":"USD","system":"urn:iso:std:iso:4217","value":0}},{"url":"https://bluebutton.cms.gov/assets/ig/StructureDefinition-bluebutton-inpatient-nch-ip-tot-ddctn-amt-extension","valueMoney":{"code":"USD","system":"urn:iso:std:iso:4217","value":0}},{"url":"https://bluebutton.cms.gov/assets/ig/StructureDefinition-bluebutton-inpatient-clm-pps-cptl-dsprprtnt-shr-amt-extension","valueMoney":{"code":"USD","system":"urn:iso:std:iso:4217","value":0}},{"url":"https://bluebutton.cms.gov/assets/ig/StructureDefinition-bluebutton-inpatient-clm-pps-cptl-excptn-amt-extension","valueMoney":{"code":"USD","system":"urn:iso:std:iso:4217","value":0}},{"url":"https://bluebutton.cms.gov/assets/ig/StructureDefinition-bluebutton-inpatient-clm-pps-cptl-fsp-amt-extension","valueMoney":{"code":"USD","system":"urn:iso:std:iso:4217","value":0}},{"url":"https://bluebutton.cms.gov/assets/ig/StructureDefinition-bluebutton-inpatient-clm-pps-cptl-ime-amt-extension","valueMoney":{"code":"USD","system":"urn:iso:std:iso:4217","value":400}},{"url":"https://bluebutton.cms.gov/assets/ig/StructureDefinition-bluebutton-inpatient-clm-pps-cptl-outlier-amt-extension","valueMoney":{"code":"USD","system":"urn:iso:std:iso:4217","value":0}},{"url":"https://bluebutton.cms.gov/assets/ig/StructureDefinition-bluebutton-inpatient-clm-pps-old-cptl-hld-hrmls-amt-extension","valueMoney":{"code":"USD","system":"urn:iso:std:iso:4217","value":0}},{"url":"https://bluebutton.cms.gov/assets/ig/StructureDefinition-bluebutton-inpatient-nch-drg-outlier-aprvd-pmt-amt-extension","valueMoney":{"code":"USD","system":"urn:iso:std:iso:4217","value":0}},{"url":"https://bluebutton.cms.gov/assets/ig/StructureDefinition-bluebutton-inpatient-nch-bene-blood-ddctbl-lblty-am-extension","valueMoney":{"code":"USD","system":"urn:iso:std:iso:4217","value":0}},{"url":"https://bluebutton.cms.gov/assets/ig/StructureDefinition-bluebutton-inpatient-clm-mdcr-non-pmt-rsn-cd-extension","valueCoding":{"code":"N","display":"All other reasons for non-payment","system":"https://bluebutton.cms.gov/assets/ig/CodeSystem-clm-mdcr-non-pmt-rsn-cd"}},{"url":"https://bluebutton.cms.gov/assets/ig/StructureDefinition-bluebutton-inpatient-prpayamt-extension","valueMoney":{"code":"USD","system":"urn:iso:std:iso:4217","value":0}},{"url":"https://bluebutton.cms.gov/assets/ig/StructureDefinition-bluebutton-inpatient-fi-num-extension","valueIdentifier":{"system":"https://bluebutton.cms.gov/assets/ig/CodeSystem-fi-num","value":"002000"}}],"id":"fea8917a-e2f7-4509-941e-1f9fbb73bf14","identifier":[{"system":"https://bluebutton.cms.gov/resources/variables/clm_id","value":"820ca7e7-a456-4778-a3dd-772834379548"},{"system":"https://bluebutton.cms.gov/resources/identifier/claim-group","value":"99999999999"}],"insurance":{"coverage":{"reference":"#coverage"}},"item":[{"extension":[{"url":"https://bluebutton.cms.gov/assets/ig/StructureDefinition-bluebutton-inpatient-rev-cntr-ndc-qty-extension","valueQuantity":{"value":0}}],"locationCodeableConcept":{"coding":[{"code":"21","display":"Inpatient Hospital","system":"https://bluebutton.cms.gov/resources/variables/line_place_of_srvc_cd"}]},"sequence":1},{"extension":[{"url":"https://bluebutton.cms.gov/assets/ig/StructureDefinition-bluebutton-inpatient-rev-cntr-ndc-qty-extension","valueQuantity":{"value":0}}],"locationCodeableConcept":{"coding":[{"code":"21","display":"Inpatient Hospital","system":"https://bluebutton.cms.gov/resources/variables/line_place_of_srvc_cd"}]},"sequence":2}],"meta":{"lastUpdated":"2019-04-09T12:03:10.911771+00:00","profile":["https://bluebutton.cms.gov/assets/ig/StructureDefinition-bluebutton-inpatient-claim"],"versionId":"MTU1NDgxMTM5MDkxMTc3MTAwMA"},"organization":{"identifier":{"value":"4f8b2690-c8a0-47d4-9f15-6aac709d5c5e"}},"patient":{"reference":"Patient/0b03e22a-28fc-4287-a7ad-dd3ba64d985a"},"payment":{"amount":{"code":"USD","system":"urn:iso:std:iso:4217","value":0}},"provider":{"identifier":{"value":"21254899-c2f1-4ed4-a21c-c6b1bc912f1c"}},"resourceType":"ExplanationOfBenefit","status":"active","totalCost":{"code":"USD","system":"urn:iso:std:iso:4217","value":125},"type":{"coding":[{"code":"71","display":"Local carrier non-durable medical equipment, prosthetics, orthotics, and supplies (DMEPOS) claim","system":"https://bluebutton.cms.gov/resources/variables/nch_clm_type_cd"},{"code":"CARRIER","display":"EOB Type","system":"https://bluebutton.cms.gov/resources/codesystem/eob-type"},{"code":"professional","display":"Claim Type","system":"http://hl7.org/fhir/ex-claimtype"},{"code":"O","display":"Part B physician/supplier claim record (processed by local carriers; can include DMEPOS services)","system":"https://bluebutton.cms.gov/resources/variables/nch_near_line_rec_ident_cd"}]}}},{"resource":{"context":{"reference":"Encounter/5bc6d73d-5c33-4bff-a21c-ea573937c045"},"id":"fc991296-44df-425b-97fa-aa54d88a639a","meta":{"lastUpdated":"2019-04-09T12:03:12.035942+00:00","versionId":"MTU1NDgxMTM5MjAzNTk0MjAwMA"},"numberOfInstances":1,"numberOfSeries":1,"patient":{"reference":"Patient/0b03e22a-28fc-4287-a7ad-dd3ba64d985a"},"resourceType":"ImagingStudy","series":[{"availability":"UNAVAILABLE","bodySite":{"code":"8205005","display":"Wrist","system":"http://snomed.info/sct"},"instance":[{"number":1,"sopClass":"urn:oid:1.2.840.10008.5.1.4.1.1.1.1","title":"Image of wrist","uid":"urn:oid:1.2.840.99999999.1.1.93058226.1547048842078"}],"modality":{"code":"DX","display":"Digital Radiography","system":"http://dicom.nema.org/resources/ontology/DCM"},"number":1,"numberOfInstances":1,"started":"2017-02-12T19:31:34-05:00","uid":"urn:oid:1.2.840.99999999.1.69803651.1547048842078"}],"started":"2017-02-12T19:31:34-05:00","uid":"urn:oid:1.2.840.99999999.98850749.1547048842078"}},{"resource":{"date":"2018-05-22T20:31:34-04:00","encounter":{"reference":"Encounter/966adb7d-be00-4286-bf73-d99e74597a6a"},"id":"2cf46016-25c0-4800-864d-21730a95ba52","meta":{"lastUpdated":"2019-04-09T12:03:13.000155+00:00","versionId":"MTU1NDgxMTM5MzAwMDE1NTAwMA"},"notGiven":false,"patient":{"reference":"Patient/0b03e22a-28fc-4287-a7ad-dd3ba64d985a"},"primarySource":true,"resourceType":"Immunization","status":"completed","vaccineCode":{"coding":[{"code":"140","display":"Influenza, seasonal, injectable, preservative free","system":"http://hl7.org/fhir/sid/cvx"}],"text":"Influenza, seasonal, injectable, preservative free"}}},{"resource":{"date":"2015-05-05T20:31:34-04:00","encounter":{"reference":"Encounter/d93a40da-1b46-4f48-9a38-de2d24a0ae4a"},"id":"2fda1f75-0dfe-4e10-af06-0b72dd631924","meta":{"lastUpdated":"2019-04-09T12:03:12.026155+00:00","versionId":"MTU1NDgxMTM5MjAyNjE1NTAwMA"},"notGiven":false,"patient":{"reference":"Patient/0b03e22a-28fc-4287-a7ad-dd3ba64d985a"},"primarySource":true,"resourceType":"Immunization","status":"completed","vaccineCode":{"coding":[{"code":"140","display":"Influenza, seasonal, injectable, preservative free","system":"http://hl7.org/fhir/sid/cvx"}],"text":"Influenza, seasonal, injectable, preservative free"}}},{"resource":{"date":"2011-04-12T20:31:34-04:00","encounter":{"reference":"Encounter/32c91f9a-1c56-47b0-893b-7a7e96f620dd"},"id":"5dac353d-92c0-49c7-a005-5471c54b8065","meta":{"lastUpdated":"2019-04-09T12:03:11.988734+00:00","versionId":"MTU1NDgxMTM5MTk4ODczNDAwMA"},"notGiven":false,"patient":{"reference":"Patient/0b03e22a-28fc-4287-a7ad-dd3ba64d985a"},"primarySource":true,"resourceType":"Immunization","status":"completed","vaccineCode":{"coding":[{"code":"113","display":"Td (adult) preservative free","system":"http://hl7.org/fhir/sid/cvx"}],"text":"Td (adult) preservative free"}}},{"resource":{"date":"2011-04-12T20:31:34-04:00","encounter":{"reference":"Encounter/32c91f9a-1c56-47b0-893b-7a7e96f620dd"},"id":"5e8b99e8-9847-4322-9746-0444cf5ef985","meta":{"lastUpdated":"2019-04-09T12:03:11.983925+00:00","versionId":"MTU1NDgxMTM5MTk4MzkyNTAwMA"},"notGiven":false,"patient":{"reference":"Patient/0b03e22a-28fc-4287-a7ad-dd3ba64d985a"},"primarySource":true,"resourceType":"Immunization","status":"completed","vaccineCode":{"coding":[{"code":"140","display":"Influenza, seasonal, injectable, preservative free","system":"http://hl7.org/fhir/sid/cvx"}],"text":"Influenza, seasonal, injectable, preservative free"}}},{"resource":{"date":"2013-04-23T20:31:34-04:00","encounter":{"reference":"Encounter/801958f3-a98f-42fd-af55-924f706d4e36"},"id":"a0e5bd89-7241-4ead-86cd-cd99801eba5f","meta":{"lastUpdated":"2019-04-09T12:03:11.983928+00:00","versionId":"MTU1NDgxMTM5MTk4MzkyODAwMA"},"notGiven":false,"patient":{"reference":"Patient/0b03e22a-28fc-4287-a7ad-dd3ba64d985a"},"primarySource":true,"resourceType":"Immunization","status":"completed","vaccineCode":{"coding":[{"code":"140","display":"Influenza, seasonal, injectable, preservative free","system":"http://hl7.org/fhir/sid/cvx"}],"text":"Influenza, seasonal, injectable, preservative free"}}},{"resource":{"date":"2009-03-31T20:31:34-04:00","encounter":{"reference":"Encounter/1f965ee2-3430-47ac-ac0d-5c51a2cfd66e"},"id":"a3af0dd1-e44c-45d3-b4b7-82758ddb5a99","meta":{"lastUpdated":"2019-04-09T12:03:10.926139+00:00","versionId":"MTU1NDgxMTM5MDkyNjEzOTAwMA"},"notGiven":false,"patient":{"reference":"Patient/0b03e22a-28fc-4287-a7ad-dd3ba64d985a"},"primarySource":true,"resourceType":"Immunization","status":"completed","vaccineCode":{"coding":[{"code":"140","display":"Influenza, seasonal, injectable, preservative free","system":"http://hl7.org/fhir/sid/cvx"}],"text":"Influenza, seasonal, injectable, preservative free"}}},{"resource":{"date":"2014-04-29T20:31:34-04:00","encounter":{"reference":"Encounter/148cfb83-2127-44ad-9b14-931412c67e8e"},"id":"ab6b850b-fb9c-4baf-a181-37123abc3787","meta":{"lastUpdated":"2019-04-09T12:03:11.984960+00:00","versionId":"MTU1NDgxMTM5MTk4NDk2MDAwMA"},"notGiven":false,"patient":{"reference":"Patient/0b03e22a-28fc-4287-a7ad-dd3ba64d985a"},"primarySource":true,"resourceType":"Immunization","status":"completed","vaccineCode":{"coding":[{"code":"140","display":"Influenza, seasonal, injectable, preservative free","system":"http://hl7.org/fhir/sid/cvx"}],"text":"Influenza, seasonal, injectable, preservative free"}}},{"resource":{"date":"2012-04-17T20:31:34-04:00","encounter":{"reference":"Encounter/9af77cea-44ae-42a9-af17-1057b693836d"},"id":"d1240a4c-1695-403b-962d-ac29607022de","meta":{"lastUpdated":"2019-04-09T12:03:11.985620+00:00","versionId":"MTU1NDgxMTM5MTk4NTYyMDAwMA"},"notGiven":false,"patient":{"reference":"Patient/0b03e22a-28fc-4287-a7ad-dd3ba64d985a"},"primarySource":true,"resourceType":"Immunization","status":"completed","vaccineCode":{"coding":[{"code":"140","display":"Influenza, seasonal, injectable, preservative free","system":"http://hl7.org/fhir/sid/cvx"}],"text":"Influenza, seasonal, injectable, preservative free"}}},{"resource":{"date":"2010-04-06T20:31:34-04:00","encounter":{"reference":"Encounter/4dbb9a26-560b-414c-b58e-ad2e944c0aa4"},"id":"d15a99e4-918b-4d9a-908b-983ef446fade","meta":{"lastUpdated":"2019-04-09T12:03:11.971137+00:00","versionId":"MTU1NDgxMTM5MTk3MTEzNzAwMA"},"notGiven":false,"patient":{"reference":"Patient/0b03e22a-28fc-4287-a7ad-dd3ba64d985a"},"primarySource":true,"resourceType":"Immunization","status":"completed","vaccineCode":{"coding":[{"code":"140","display":"Influenza, seasonal, injectable, preservative free","system":"http://hl7.org/fhir/sid/cvx"}],"text":"Influenza, seasonal, injectable, preservative free"}}},{"resource":{"date":"2017-05-16T20:31:34-04:00","encounter":{"reference":"Encounter/5d87b7dc-7929-42e8-bbca-b6ffee7584a6"},"id":"e9a8511e-48e6-4ba5-bb6a-80ae48e6820b","meta":{"lastUpdated":"2019-04-09T12:03:12.989314+00:00","versionId":"MTU1NDgxMTM5Mjk4OTMxNDAwMA"},"notGiven":false,"patient":{"reference":"Patient/0b03e22a-28fc-4287-a7ad-dd3ba64d985a"},"primarySource":true,"resourceType":"Immunization","status":"completed","vaccineCode":{"coding":[{"code":"140","display":"Influenza, seasonal, injectable, preservative free","system":"http://hl7.org/fhir/sid/cvx"}],"text":"Influenza, seasonal, injectable, preservative free"}}},{"resource":{"date":"2016-05-10T20:31:34-04:00","encounter":{"reference":"Encounter/dfb83232-820a-4d46-9e8e-a7102efe9adc"},"id":"fc1973ac-c89f-42ae-aeb2-652f9a36d6ea","meta":{"lastUpdated":"2019-04-09T12:03:12.026145+00:00","versionId":"MTU1NDgxMTM5MjAyNjE0NTAwMA"},"notGiven":false,"patient":{"reference":"Patient/0b03e22a-28fc-4287-a7ad-dd3ba64d985a"},"primarySource":true,"resourceType":"Immunization","status":"completed","vaccineCode":{"coding":[{"code":"140","display":"Influenza, seasonal, injectable, preservative free","system":"http://hl7.org/fhir/sid/cvx"}],"text":"Influenza, seasonal, injectable, preservative free"}}},{"resource":{"authoredOn":"2000-02-08T19:31:34-05:00","context":{"reference":"Encounter/4857a97f-5e0a-4d5c-b3f2-f176fc7e1532"},"id":"0eb20045-3dcd-4530-93bf-5a3f66dc8a20","intent":"order","medicationCodeableConcept":{"coding":[{"code":"904419","display":"Alendronic acid 10 MG Oral Tablet","system":"http://www.nlm.nih.gov/research/umls/rxnorm"}],"text":"Alendronic acid 10 MG Oral Tablet"},"meta":{"lastUpdated":"2019-04-09T12:03:10.907316+00:00","versionId":"MTU1NDgxMTM5MDkwNzMxNjAwMA"},"requester":{"agent":{"reference":"Practitioner/21254899-c2f1-4ed4-a21c-c6b1bc912f1c"},"onBehalfOf":{"reference":"Organization/4f8b2690-c8a0-47d4-9f15-6aac709d5c5e"}},"resourceType":"MedicationRequest","status":"active","subject":{"reference":"Patient/0b03e22a-28fc-4287-a7ad-dd3ba64d985a"}}},{"resource":{"authoredOn":"2017-02-12T19:31:34-05:00","context":{"reference":"Encounter/5bc6d73d-5c33-4bff-a21c-ea573937c045"},"dosageInstruction":[{"asNeededBoolean":true,"sequence":1}],"id":"2ba5c48e-1b5b-4409-a6a7-1e69a03f40f9","intent":"order","medicationCodeableConcept":{"coding":[{"code":"313782","display":"Acetaminophen 325 MG Oral Tablet","system":"http://www.nlm.nih.gov/research/umls/rxnorm"}],"text":"Acetaminophen 325 MG Oral Tablet"},"meta":{"lastUpdated":"2019-04-09T12:03:12.033366+00:00","versionId":"MTU1NDgxMTM5MjAzMzM2NjAwMA"},"requester":{"agent":{"reference":"Practitioner/21254899-c2f1-4ed4-a21c-c6b1bc912f1c"},"onBehalfOf":{"reference":"Organization/4f8b2690-c8a0-47d4-9f15-6aac709d5c5e"}},"resourceType":"MedicationRequest","status":"stopped","subject":{"reference":"Patient/0b03e22a-28fc-4287-a7ad-dd3ba64d985a"}}},{"resource":{"authoredOn":"1996-04-17T20:31:34-04:00","context":{"reference":"Encounter/de4acb62-9aff-46e1-86f7-1d46a714bc0c"},"id":"673a3cb9-c28c-4d89-a326-842c403c08f2","intent":"order","medicationCodeableConcept":{"coding":[{"code":"849574","display":"Naproxen sodium 220 MG Oral Tablet","system":"http://www.nlm.nih.gov/research/umls/rxnorm"}],"text":"Naproxen sodium 220 MG Oral Tablet"},"meta":{"lastUpdated":"2019-04-09T12:03:10.918292+00:00","versionId":"MTU1NDgxMTM5MDkxODI5MjAwMA"},"reasonReference":[{"reference":"Condition/ae2f9b2f-05aa-4f3e-a225-499333425086"}],"requester":{"agent":{"reference":"Practitioner/21254899-c2f1-4ed4-a21c-c6b1bc912f1c"},"onBehalfOf":{"reference":"Organization/4f8b2690-c8a0-47d4-9f15-6aac709d5c5e"}},"resourceType":"MedicationRequest","status":"active","subject":{"reference":"Patient/0b03e22a-28fc-4287-a7ad-dd3ba64d985a"}}},{"resource":{"authoredOn":"2010-10-12T20:31:34-04:00","context":{"reference":"Encounter/21873961-2e16-4592-bcec-836d5cec20d6"},"id":"68505149-eb0b-48cb-bec9-8dda2d44ffd1","intent":"order","medicationCodeableConcept":{"coding":[{"code":"562251","display":"Amoxicillin 250 MG / Clavulanate 125 MG Oral Tablet","system":"http://www.nlm.nih.gov/research/umls/rxnorm"}],"text":"Amoxicillin 250 MG / Clavulanate 125 MG Oral Tablet"},"meta":{"lastUpdated":"2019-04-09T12:03:11.987198+00:00","versionId":"MTU1NDgxMTM5MTk4NzE5ODAwMA"},"reasonReference":[{"reference":"Condition/ef047645-7306-413b-8dc9-8b45f9e38298"}],"requester":{"agent":{"reference":"Practitioner/21254899-c2f1-4ed4-a21c-c6b1bc912f1c"},"onBehalfOf":{"reference":"Organization/4f8b2690-c8a0-47d4-9f15-6aac709d5c5e"}},"resourceType":"MedicationRequest","status":"stopped","subject":{"reference":"Patient/0b03e22a-28fc-4287-a7ad-dd3ba64d985a"}}},{"resource":{"category":[{"coding":[{"code":"laboratory","display":"laboratory","system":"http://hl7.org/fhir/observation-category"}]}],"code":{"coding":[{"code":"6298-4","display":"Potassium","system":"http://loinc.org"}],"text":"Potassium"},"context":{"reference":"Encounter/9af77cea-44ae-42a9-af17-1057b693836d"},"effectiveDateTime":"2012-04-17T20:31:34-04:00","id":"001e2c91-bba6-4984-8597-ece2046456a2","issued":"2012-04-17T20:31:34.780-04:00","meta":{"lastUpdated":"2019-04-09T12:03:11.980124+00:00","versionId":"MTU1NDgxMTM5MTk4MDEyNDAwMA"},"resourceType":"Observation","status":"final","subject":{"reference":"Patient/0b03e22a-28fc-4287-a7ad-dd3ba64d985a"},"valueQuantity":{"code":"mmol/L","system":"http://unitsofmeasure.org","unit":"mmol/L","value":4.333211163849257}}},{"resource":{"category":[{"coding":[{"code":"vital-signs","display":"vital-signs","system":"http://hl7.org/fhir/observation-category"}]}],"code":{"coding":[{"code":"39156-5","display":"Body Mass Index","system":"http://loinc.org"}],"text":"Body Mass Index"},"context":{"reference":"Encounter/966adb7d-be00-4286-bf73-d99e74597a6a"},"effectiveDateTime":"2018-05-22T20:31:34-04:00","id":"024c29b3-d9a8-442d-80d1-00f47f9a836a","issued":"2018-05-22T20:31:34.780-04:00","meta":{"lastUpdated":"2019-04-09T12:03:12.993306+00:00","versionId":"MTU1NDgxMTM5Mjk5MzMwNjAwMA"},"resourceType":"Observation","status":"final","subject":{"reference":"Patient/0b03e22a-28fc-4287-a7ad-dd3ba64d985a"},"valueQuantity":{"code":"kg/m2","system":"http://unitsofmeasure.org","unit":"kg/m2","value":35.713706143756106}}},{"resource":{"category":[{"coding":[{"code":"laboratory","display":"laboratory","system":"http://hl7.org/fhir/observation-category"}]}],"code":{"coding":[{"code":"20565-8","display":"Carbon Dioxide","system":"http://loinc.org"}],"text":"Carbon Dioxide"},"context":{"reference":"Encounter/9af77cea-44ae-42a9-af17-1057b693836d"},"effectiveDateTime":"2012-04-17T20:31:34-04:00","id":"02b749ba-576e-4f54-a91b-c242f3684011","issued":"2012-04-17T20:31:34.780-04:00","meta":{"lastUpdated":"2019-04-09T12:03:11.986153+00:00","versionId":"MTU1NDgxMTM5MTk4NjE1MzAwMA"},"resourceType":"Observation","status":"final","subject":{"reference":"Patient/0b03e22a-28fc-4287-a7ad-dd3ba64d985a"},"valueQuantity":{"code":"mmol/L","system":"http://unitsofmeasure.org","unit":"mmol/L","value":25.984327604994746}}},{"resource":{"category":[{"coding":[{"code":"laboratory","display":"laboratory","system":"http://hl7.org/fhir/observation-category"}]}],"code":{"coding":[{"code":"4548-4","display":"Hemoglobin A1c/Hemoglobin.total in Blood","system":"http://loinc.org"}],"text":"Hemoglobin A1c/Hemoglobin.total in Blood"},"context":{"reference":"Encounter/32c91f9a-1c56-47b0-893b-7a7e96f620dd"},"effectiveDateTime":"2011-04-12T20:31:34-04:00","id":"02ce80ea-9f71-47c8-a146-11ae20a7a5c4","issued":"2011-04-12T20:31:34.780-04:00","meta":{"lastUpdated":"2019-04-09T12:03:11.971145+00:00","versionId":"MTU1NDgxMTM5MTk3MTE0NTAwMA"},"resourceType":"Observation","status":"final","subject":{"reference":"Patient/0b03e22a-28fc-4287-a7ad-dd3ba64d985a"},"valueQuantity":{"code":"%","system":"http://unitsofmeasure.org","unit":"%","value":6.074172128858504}}},{"resource":{"category":[{"coding":[{"code":"laboratory","display":"laboratory","system":"http://hl7.org/fhir/observation-category"}]}],"code":{"coding":[{"code":"2069-3","display":"Chloride","system":"http://loinc.org"}],"text":"Chloride"},"context":{"reference":"Encounter/5d87b7dc-7929-42e8-bbca-b6ffee7584a6"},"effectiveDateTime":"2017-05-16T20:31:34-04:00","id":"04f0d50d-32fb-424f-a901-2de3b80d446a","issued":"2017-05-16T20:31:34.780-04:00","meta":{"lastUpdated":"2019-04-09T12:03:12.989316+00:00","versionId":"MTU1NDgxMTM5Mjk4OTMxNjAwMA"},"resourceType":"Observation","status":"final","subject":{"reference":"Patient/0b03e22a-28fc-4287-a7ad-dd3ba64d985a"},"valueQuantity":{"code":"mmol/L","system":"http://unitsofmeasure.org","unit":"mmol/L","value":102.59057820687454}}},{"resource":{"category":[{"coding":[{"code":"laboratory","display":"laboratory","system":"http://hl7.org/fhir/observation-category"}]}],"code":{"coding":[{"code":"2339-0","display":"Glucose","system":"http://loinc.org"}],"text":"Glucose"},"context":{"reference":"Encounter/801958f3-a98f-42fd-af55-924f706d4e36"},"effectiveDateTime":"2013-04-23T20:31:34-04:00","id":"07cd0e16-aa3d-4240-b9a1-7c22b034b324","issued":"2013-04-23T20:31:34.780-04:00","meta":{"lastUpdated":"2019-04-09T12:03:11.978607+00:00","versionId":"MTU1NDgxMTM5MTk3ODYwNzAwMA"},"resourceType":"Observation","status":"final","subject":{"reference":"Patient/0b03e22a-28fc-4287-a7ad-dd3ba64d985a"},"valueQuantity":{"code":"mg/dL","system":"http://unitsofmeasure.org","unit":"mg/dL","value":71.61386195482864}}},{"resource":{"category":[{"coding":[{"code":"vital-signs","display":"vital-signs","system":"http://hl7.org/fhir/observation-category"}]}],"code":{"coding":[{"code":"72514-3","display":"Pain severity - 0-10 verbal numeric rating [Score] - Reported","system":"http://loinc.org"}],"text":"Pain severity - 0-10 verbal numeric rating [Score] - Reported"},"context":{"reference":"Encounter/9af77cea-44ae-42a9-af17-1057b693836d"},"effectiveDateTime":"2012-04-17T20:31:34-04:00","id":"07f06d0a-b44a-4c5a-afc6-924fd5e07b4d","issued":"2012-04-17T20:31:34.780-04:00","meta":{"lastUpdated":"2019-04-09T12:03:11.971170+00:00","versionId":"MTU1NDgxMTM5MTk3MTE3MDAwMA"},"resourceType":"Observation","status":"final","subject":{"reference":"Patient/0b03e22a-28fc-4287-a7ad-dd3ba64d985a"},"valueQuantity":{"code":"{score}","system":"http://unitsofmeasure.org","unit":"{score}","value":2.295826268983183}}},{"resource":{"category":[{"coding":[{"code":"laboratory","display":"laboratory","system":"http://hl7.org/fhir/observation-category"}]}],"code":{"coding":[{"code":"2339-0","display":"Glucose","system":"http://loinc.org"}],"text":"Glucose"},"context":{"reference":"Encounter/966adb7d-be00-4286-bf73-d99e74597a6a"},"effectiveDateTime":"2018-05-22T20:31:34-04:00","id":"0b49cf17-d136-45d7-a8a8-fd9ca8159aa8","issued":"2018-05-22T20:31:34.780-04:00","meta":{"lastUpdated":"2019-04-09T12:03:13.002153+00:00","versionId":"MTU1NDgxMTM5MzAwMjE1MzAwMA"},"resourceType":"Observation","status":"final","subject":{"reference":"Patient/0b03e22a-28fc-4287-a7ad-dd3ba64d985a"},"valueQuantity":{"code":"mg/dL","system":"http://unitsofmeasure.org","unit":"mg/dL","value":98.28848674269646}}},{"resource":{"category":[{"coding":[{"code":"vital-signs","display":"vital-signs","system":"http://hl7.org/fhir/observation-category"}]}],"code":{"coding":[{"code":"72514-3","display":"Pain severity - 0-10 verbal numeric rating [Score] - Reported","system":"http://loinc.org"}],"text":"Pain severity - 0-10 verbal numeric rating [Score] - Reported"},"context":{"reference":"Encounter/5d87b7dc-7929-42e8-bbca-b6ffee7584a6"},"effectiveDateTime":"2017-05-16T20:31:34-04:00","id":"0c567488-e94b-4d77-a668-aee9a3664fc4","issued":"2017-05-16T20:31:34.780-04:00","meta":{"lastUpdated":"2019-04-09T12:03:12.989311+00:00","versionId":"MTU1NDgxMTM5Mjk4OTMxMTAwMA"},"resourceType":"Observation","status":"final","subject":{"reference":"Patient/0b03e22a-28fc-4287-a7ad-dd3ba64d985a"},"valueQuantity":{"code":"{score}","system":"http://unitsofmeasure.org","unit":"{score}","value":1.4886673110961408}}},{"resource":{"category":[{"coding":[{"code":"vital-signs","display":"vital-signs","system":"http://hl7.org/fhir/observation-category"}]}],"code":{"coding":[{"code":"55284-4","display":"Blood Pressure","system":"http://loinc.org"}],"text":"Blood Pressure"},"component":[{"code":{"coding":[{"code":"8462-4","display":"Diastolic Blood Pressure","system":"http://loinc.org"}],"text":"Diastolic Blood Pressure"},"valueQuantity":{"code":"mmHg","system":"http://unitsofmeasure.org","unit":"mmHg","value":81.30927993153796}},{"code":{"coding":[{"code":"8480-6","display":"Systolic Blood Pressure","system":"http://loinc.org"}],"text":"Systolic Blood Pressure"},"valueQuantity":{"code":"mmHg","system":"http://unitsofmeasure.org","unit":"mmHg","value":103.017495269803}}],"context":{"reference":"Encounter/1f965ee2-3430-47ac-ac0d-5c51a2cfd66e"},"effectiveDateTime":"2009-03-31T20:31:34-04:00","id":"0d5a5f7b-65bd-4c87-a99c-5c5c82e7fbd4","issued":"2009-03-31T20:31:34.780-04:00","meta":{"lastUpdated":"2019-04-09T12:03:10.920311+00:00","versionId":"MTU1NDgxMTM5MDkyMDMxMTAwMA"},"resourceType":"Observation","status":"final","subject":{"reference":"Patient/0b03e22a-28fc-4287-a7ad-dd3ba64d985a"}}},{"resource":{"category":[{"coding":[{"code":"laboratory","display":"laboratory","system":"http://hl7.org/fhir/observation-category"}]}],"code":{"coding":[{"code":"777-3","display":"Platelets [#/volume] in Blood by Automated count","system":"http://loinc.org"}],"text":"Platelets [#/volume] in Blood by Automated count"},"context":{"reference":"Encounter/5d87b7dc-7929-42e8-bbca-b6ffee7584a6"},"effectiveDateTime":"2017-05-16T20:31:34-04:00","id":"0e8ac6ae-cd9c-4556-9b0e-59ff936cd1ad","issued":"2017-05-16T20:31:34.780-04:00","meta":{"lastUpdated":"2019-04-09T12:03:12.993694+00:00","versionId":"MTU1NDgxMTM5Mjk5MzY5NDAwMA"},"resourceType":"Observation","status":"final","subject":{"reference":"Patient/0b03e22a-28fc-4287-a7ad-dd3ba64d985a"},"valueQuantity":{"code":"10*3/uL","system":"http://unitsofmeasure.org","unit":"10*3/uL","value":310.97239132802713}}},{"resource":{"category":[{"coding":[{"code":"laboratory","display":"laboratory","system":"http://hl7.org/fhir/observation-category"}]}],"code":{"coding":[{"code":"786-4","display":"MCHC [Mass/volume] by Automated count","system":"http://loinc.org"}],"text":"MCHC [Mass/volume] by Automated count"},"context":{"reference":"Encounter/9af77cea-44ae-42a9-af17-1057b693836d"},"effectiveDateTime":"2012-04-17T20:31:34-04:00","id":"104e2958-ad3e-40cb-95dc-0558f79b7181","issued":"2012-04-17T20:31:34.780-04:00","meta":{"lastUpdated":"2019-04-09T12:03:11.985924+00:00","versionId":"MTU1NDgxMTM5MTk4NTkyNDAwMA"},"resourceType":"Observation","status":"final","subject":{"reference":"Patient/0b03e22a-28fc-4287-a7ad-dd3ba64d985a"},"valueQuantity":{"code":"g/dL","system":"http://unitsofmeasure.org","unit":"g/dL","value":35.763992055410434}}},{"resource":{"category":[{"coding":[{"code":"vital-signs","display":"vital-signs","system":"http://hl7.org/fhir/observation-category"}]}],"code":{"coding":[{"code":"72514-3","display":"Pain severity - 0-10 verbal numeric rating [Score] - Reported","system":"http://loinc.org"}],"text":"Pain severity - 0-10 verbal numeric rating [Score] - Reported"},"context":{"reference":"Encounter/4dbb9a26-560b-414c-b58e-ad2e944c0aa4"},"effectiveDateTime":"2010-04-06T20:31:34-04:00","id":"10d7666e-1da0-4afc-ac9e-92be0395df1d","issued":"2010-04-06T20:31:34.780-04:00","meta":{"lastUpdated":"2019-04-09T12:03:10.930666+00:00","versionId":"MTU1NDgxMTM5MDkzMDY2NjAwMA"},"resourceType":"Observation","status":"final","subject":{"reference":"Patient/0b03e22a-28fc-4287-a7ad-dd3ba64d985a"},"valueQuantity":{"code":"{score}","system":"http://unitsofmeasure.org","unit":"{score}","value":2.7651702335344774}}},{"resource":{"category":[{"coding":[{"code":"laboratory","display":"laboratory","system":"http://hl7.org/fhir/observation-category"}]}],"code":{"coding":[{"code":"49765-1","display":"Calcium","system":"http://loinc.org"}],"text":"Calcium"},"context":{"reference":"Encounter/9af77cea-44ae-42a9-af17-1057b693836d"},"effectiveDateTime":"2012-04-17T20:31:34-04:00","id":"1237a756-3924-4952-82e2-d364694f5e24","issued":"2012-04-17T20:31:34.780-04:00","meta":{"lastUpdated":"2019-04-09T12:03:11.971166+00:00","versionId":"MTU1NDgxMTM5MTk3MTE2NjAwMA"},"resourceType":"Observation","status":"final","subject":{"reference":"Patient/0b03e22a-28fc-4287-a7ad-dd3ba64d985a"},"valueQuantity":{"code":"mg/dL","system":"http://unitsofmeasure.org","unit":"mg/dL","value":9.299358588121661}}},{"resource":{"category":[{"coding":[{"code":"vital-signs","display":"vital-signs","system":"http://hl7.org/fhir/observation-category"}]}],"code":{"coding":[{"code":"55284-4","display":"Blood Pressure","system":"http://loinc.org"}],"text":"Blood Pressure"},"component":[{"code":{"coding":[{"code":"8462-4","display":"Diastolic Blood Pressure","system":"http://loinc.org"}],"text":"Diastolic Blood Pressure"},"valueQuantity":{"code":"mmHg","system":"http://unitsofmeasure.org","unit":"mmHg","value":72.46513620677496}},{"code":{"coding":[{"code":"8480-6","display":"Systolic Blood Pressure","system":"http://loinc.org"}],"text":"Systolic Blood Pressure"},"valueQuantity":{"code":"mmHg","system":"http://unitsofmeasure.org","unit":"mmHg","value":124.80339915710437}}],"context":{"reference":"Encounter/d93a40da-1b46-4f48-9a38-de2d24a0ae4a"},"effectiveDateTime":"2015-05-05T20:31:34-04:00","id":"137042f8-bca8-43f5-ae00-0c44141c4ce1","issued":"2015-05-05T20:31:34.780-04:00","meta":{"lastUpdated":"2019-04-09T12:03:12.035931+00:00","versionId":"MTU1NDgxMTM5MjAzNTkzMTAwMA"},"resourceType":"Observation","status":"final","subject":{"reference":"Patient/0b03e22a-28fc-4287-a7ad-dd3ba64d985a"}}},{"resource":{"category":[{"coding":[{"code":"vital-signs","display":"vital-signs","system":"http://hl7.org/fhir/observation-category"}]}],"code":{"coding":[{"code":"8302-2","display":"Body Height","system":"http://loinc.org"}],"text":"Body Height"},"context":{"reference":"Encounter/9af77cea-44ae-42a9-af17-1057b693836d"},"effectiveDateTime":"2012-04-17T20:31:34-04:00","id":"13fbdd51-803b-48c1-829e-60790dfbb6bb","issued":"2012-04-17T20:31:34.780-04:00","meta":{"lastUpdated":"2019-04-09T12:03:11.978712+00:00","versionId":"MTU1NDgxMTM5MTk3ODcxMjAwMA"},"resourceType":"Observation","status":"final","subject":{"reference":"Patient/0b03e22a-28fc-4287-a7ad-dd3ba64d985a"},"valueQuantity":{"code":"cm","system":"http://unitsofmeasure.org","unit":"cm","value":162.5022145152575}}},{"resource":{"category":[{"coding":[{"code":"laboratory","display":"laboratory","system":"http://hl7.org/fhir/observation-category"}]}],"code":{"coding":[{"code":"49765-1","display":"Calcium","system":"http://loinc.org"}],"text":"Calcium"},"context":{"reference":"Encounter/1f965ee2-3430-47ac-ac0d-5c51a2cfd66e"},"effectiveDateTime":"2009-03-31T20:31:34-04:00","id":"1409d724-4cf3-499a-bfec-287bebd18cc2","issued":"2009-03-31T20:31:34.780-04:00","meta":{"lastUpdated":"2019-04-09T12:03:10.931854+00:00","versionId":"MTU1NDgxMTM5MDkzMTg1NDAwMA"},"resourceType":"Observation","status":"final","subject":{"reference":"Patient/0b03e22a-28fc-4287-a7ad-dd3ba64d985a"},"valueQuantity":{"code":"mg/dL","system":"http://unitsofmeasure.org","unit":"mg/dL","value":9.772404301144057}}},{"resource":{"category":[{"coding":[{"code":"survey","display":"survey","system":"http://hl7.org/fhir/observation-category"}]}],"code":{"coding":[{"code":"72166-2","display":"Tobacco smoking status NHIS","system":"http://loinc.org"}],"text":"Tobacco smoking status NHIS"},"context":{"reference":"Encounter/1f965ee2-3430-47ac-ac0d-5c51a2cfd66e"},"effectiveDateTime":"2009-03-31T20:31:34-04:00","id":"1593c718-3c3e-4077-a96f-f7abc1678fbb","issued":"2009-03-31T20:31:34.780-04:00","meta":{"lastUpdated":"2019-04-09T12:03:10.931853+00:00","versionId":"MTU1NDgxMTM5MDkzMTg1MzAwMA"},"resourceType":"Observation","status":"final","subject":{"reference":"Patient/0b03e22a-28fc-4287-a7ad-dd3ba64d985a"},"valueCodeableConcept":{"coding":[{"code":"8517006","display":"Former smoker","system":"http://snomed.info/sct"}],"text":"Former smoker"}}},{"resource":{"category":[{"coding":[{"code":"vital-signs","display":"vital-signs","system":"http://hl7.org/fhir/observation-category"}]}],"code":{"coding":[{"code":"55284-4","display":"Blood Pressure","system":"http://loinc.org"}],"text":"Blood Pressure"},"component":[{"code":{"coding":[{"code":"8462-4","display":"Diastolic Blood Pressure","system":"http://loinc.org"}],"text":"Diastolic Blood Pressure"},"valueQuantity":{"code":"mmHg","system":"http://unitsofmeasure.org","unit":"mmHg","value":80.50857394352614}},{"code":{"coding":[{"code":"8480-6","display":"Systolic Blood Pressure","system":"http://loinc.org"}],"text":"Systolic Blood Pressure"},"valueQuantity":{"code":"mmHg","system":"http://unitsofmeasure.org","unit":"mmHg","value":100.97882598274235}}],"context":{"reference":"Encounter/5d87b7dc-7929-42e8-bbca-b6ffee7584a6"},"effectiveDateTime":"2017-05-16T20:31:34-04:00","id":"15e6c259-e31f-4181-9e32-0ef4d0b06cb0","issued":"2017-05-16T20:31:34.780-04:00","meta":{"lastUpdated":"2019-04-09T12:03:12.992060+00:00","versionId":"MTU1NDgxMTM5Mjk5MjA2MDAwMA"},"resourceType":"Observation","status":"final","subject":{"reference":"Patient/0b03e22a-28fc-4287-a7ad-dd3ba64d985a"}}},{"resource":{"category":[{"coding":[{"code":"laboratory","display":"laboratory","system":"http://hl7.org/fhir/observation-category"}]}],"code":{"coding":[{"code":"2947-0","display":"Sodium","system":"http://loinc.org"}],"text":"Sodium"},"context":{"reference":"Encounter/4dbb9a26-560b-414c-b58e-ad2e944c0aa4"},"effectiveDateTime":"2010-04-06T20:31:34-04:00","id":"167a93ed-a501-498b-a89c-a997e0be5b6e","issued":"2010-04-06T20:31:34.780-04:00","meta":{"lastUpdated":"2019-04-09T12:03:10.932866+00:00","versionId":"MTU1NDgxMTM5MDkzMjg2NjAwMA"},"resourceType":"Observation","status":"final","subject":{"reference":"Patient/0b03e22a-28fc-4287-a7ad-dd3ba64d985a"},"valueQuantity":{"code":"mmol/L","system":"http://unitsofmeasure.org","unit":"mmol/L","value":142.8143798140596}}},{"resource":{"category":[{"coding":[{"code":"survey","display":"survey","system":"http://hl7.org/fhir/observation-category"}]}],"code":{"coding":[{"code":"72166-2","display":"Tobacco smoking status NHIS","system":"http://loinc.org"}],"text":"Tobacco smoking status NHIS"},"context":{"reference":"Encounter/9af77cea-44ae-42a9-af17-1057b693836d"},"effectiveDateTime":"2012-04-17T20:31:34-04:00","id":"16bacf0b-3be1-459e-9f01-f84858f168bf","issued":"2012-04-17T20:31:34.780-04:00","meta":{"lastUpdated":"2019-04-09T12:03:11.971164+00:00","versionId":"MTU1NDgxMTM5MTk3MTE2NDAwMA"},"resourceType":"Observation","status":"final","subject":{"reference":"Patient/0b03e22a-28fc-4287-a7ad-dd3ba64d985a"},"valueCodeableConcept":{"coding":[{"code":"8517006","display":"Former smoker","system":"http://snomed.info/sct"}],"text":"Former smoker"}}},{"resource":{"category":[{"coding":[{"code":"laboratory","display":"laboratory","system":"http://hl7.org/fhir/observation-category"}]}],"code":{"coding":[{"code":"2571-8","display":"Triglycerides","system":"http://loinc.org"}],"text":"Triglycerides"},"context":{"reference":"Encounter/32c91f9a-1c56-47b0-893b-7a7e96f620dd"},"effectiveDateTime":"2011-04-12T20:31:34-04:00","id":"170fe4ed-b297-4c37-869b-76fe200e2c67","issued":"2011-04-12T20:31:34.780-04:00","meta":{"lastUpdated":"2019-04-09T12:03:11.977258+00:00","versionId":"MTU1NDgxMTM5MTk3NzI1ODAwMA"},"resourceType":"Observation","status":"final","subject":{"reference":"Patient/0b03e22a-28fc-4287-a7ad-dd3ba64d985a"},"valueQuantity":{"code":"mg/dL","system":"http://unitsofmeasure.org","unit":"mg/dL","value":137.65826182339956}}},{"resource":{"category":[{"coding":[{"code":"vital-signs","display":"vital-signs","system":"http://hl7.org/fhir/observation-category"}]}],"code":{"coding":[{"code":"8302-2","display":"Body Height","system":"http://loinc.org"}],"text":"Body Height"},"context":{"reference":"Encounter/1f965ee2-3430-47ac-ac0d-5c51a2cfd66e"},"effectiveDateTime":"2009-03-31T20:31:34-04:00","id":"18210cd5-ba4b-46f7-9a7a-e9a5fd16cf6b","issued":"2009-03-31T20:31:34.780-04:00","meta":{"lastUpdated":"2019-04-09T12:03:10.919548+00:00","versionId":"MTU1NDgxMTM5MDkxOTU0ODAwMA"},"resourceType":"Observation","status":"final","subject":{"reference":"Patient/0b03e22a-28fc-4287-a7ad-dd3ba64d985a"},"valueQuantity":{"code":"cm","system":"http://unitsofmeasure.org","unit":"cm","value":162.5022145152575}}},{"resource":{"category":[{"coding":[{"code":"laboratory","display":"laboratory","system":"http://hl7.org/fhir/observation-category"}]}],"code":{"coding":[{"code":"38483-4","display":"Creatinine","system":"http://loinc.org"}],"text":"Creatinine"},"context":{"reference":"Encounter/32c91f9a-1c56-47b0-893b-7a7e96f620dd"},"effectiveDateTime":"2011-04-12T20:31:34-04:00","id":"186a7340-124c-47c7-9fa8-c2f3caeec9bd","issued":"2011-04-12T20:31:34.780-04:00","meta":{"lastUpdated":"2019-04-09T12:03:11.981869+00:00","versionId":"MTU1NDgxMTM5MTk4MTg2OTAwMA"},"resourceType":"Observation","status":"final","subject":{"reference":"Patient/0b03e22a-28fc-4287-a7ad-dd3ba64d985a"},"valueQuantity":{"code":"mg/dL","system":"http://unitsofmeasure.org","unit":"mg/dL","value":1.2296140926290324}}},{"resource":{"category":[{"coding":[{"code":"laboratory","display":"laboratory","system":"http://hl7.org/fhir/observation-category"}]}],"code":{"coding":[{"code":"2947-0","display":"Sodium","system":"http://loinc.org"}],"text":"Sodium"},"context":{"reference":"Encounter/32c91f9a-1c56-47b0-893b-7a7e96f620dd"},"effectiveDateTime":"2011-04-12T20:31:34-04:00","id":"18a176c3-f875-4c51-9e4f-a8bdf4359c59","issued":"2011-04-12T20:31:34.780-04:00","meta":{"lastUpdated":"2019-04-09T12:03:11.971136+00:00","versionId":"MTU1NDgxMTM5MTk3MTEzNjAwMA"},"resourceType":"Observation","status":"final","subject":{"reference":"Patient/0b03e22a-28fc-4287-a7ad-dd3ba64d985a"},"valueQuantity":{"code":"mmol/L","system":"http://unitsofmeasure.org","unit":"mmol/L","value":140.90773231276015}}},{"resource":{"category":[{"coding":[{"code":"vital-signs","display":"vital-signs","system":"http://hl7.org/fhir/observation-category"}]}],"code":{"coding":[{"code":"29463-7","display":"Body Weight","system":"http://loinc.org"}],"text":"Body Weight"},"context":{"reference":"Encounter/1f965ee2-3430-47ac-ac0d-5c51a2cfd66e"},"effectiveDateTime":"2009-03-31T20:31:34-04:00","id":"1a7efd8c-a61d-49a9-b5b0-af2484d541cf","issued":"2009-03-31T20:31:34.780-04:00","meta":{"lastUpdated":"2019-04-09T12:03:10.920310+00:00","versionId":"MTU1NDgxMTM5MDkyMDMxMDAwMA"},"resourceType":"Observation","status":"final","subject":{"reference":"Patient/0b03e22a-28fc-4287-a7ad-dd3ba64d985a"},"valueQuantity":{"code":"kg","system":"http://unitsofmeasure.org","unit":"kg","value":107.93197974288232}}},{"resource":{"category":[{"coding":[{"code":"laboratory","display":"laboratory","system":"http://hl7.org/fhir/observation-category"}]}],"code":{"coding":[{"code":"6299-2","display":"Urea Nitrogen","system":"http://loinc.org"}],"text":"Urea Nitrogen"},"context":{"reference":"Encounter/32c91f9a-1c56-47b0-893b-7a7e96f620dd"},"effectiveDateTime":"2011-04-12T20:31:34-04:00","id":"1cbc82fa-81cc-4b91-9a82-fc83bbb240ab","issued":"2011-04-12T20:31:34.780-04:00","meta":{"lastUpdated":"2019-04-09T12:03:11.988737+00:00","versionId":"MTU1NDgxMTM5MTk4ODczNzAwMA"},"resourceType":"Observation","status":"final","subject":{"reference":"Patient/0b03e22a-28fc-4287-a7ad-dd3ba64d985a"},"valueQuantity":{"code":"mg/dL","system":"http://unitsofmeasure.org","unit":"mg/dL","value":10.674172163372367}}},{"resource":{"category":[{"coding":[{"code":"laboratory","display":"laboratory","system":"http://hl7.org/fhir/observation-category"}]}],"code":{"coding":[{"code":"2093-3","display":"Total Cholesterol","system":"http://loinc.org"}],"text":"Total Cholesterol"},"context":{"reference":"Encounter/32c91f9a-1c56-47b0-893b-7a7e96f620dd"},"effectiveDateTime":"2011-04-12T20:31:34-04:00","id":"1e7f1418-42b8-4929-ada0-8f0a4ffb9f33","issued":"2011-04-12T20:31:34.780-04:00","meta":{"lastUpdated":"2019-04-09T12:03:11.988744+00:00","versionId":"MTU1NDgxMTM5MTk4ODc0NDAwMA"},"resourceType":"Observation","status":"final","subject":{"reference":"Patient/0b03e22a-28fc-4287-a7ad-dd3ba64d985a"},"valueQuantity":{"code":"mg/dL","system":"http://unitsofmeasure.org","unit":"mg/dL","value":197.89645857817607}}},{"resource":{"category":[{"coding":[{"code":"vital-signs","display":"vital-signs","system":"http://hl7.org/fhir/observation-category"}]}],"code":{"coding":[{"code":"29463-7","display":"Body Weight","system":"http://loinc.org"}],"text":"Body Weight"},"context":{"reference":"Encounter/801958f3-a98f-42fd-af55-924f706d4e36"},"effectiveDateTime":"2013-04-23T20:31:34-04:00","id":"1ecd4901-a390-48f8-b67b-fe47067f0141","issued":"2013-04-23T20:31:34.780-04:00","meta":{"lastUpdated":"2019-04-09T12:03:11.982572+00:00","versionId":"MTU1NDgxMTM5MTk4MjU3MjAwMA"},"resourceType":"Observation","status":"final","subject":{"reference":"Patient/0b03e22a-28fc-4287-a7ad-dd3ba64d985a"},"valueQuantity":{"code":"kg","system":"http://unitsofmeasure.org","unit":"kg","value":102.71575336145305}}},{"resource":{"category":[{"coding":[{"code":"laboratory","display":"laboratory","system":"http://hl7.org/fhir/observation-category"}]}],"code":{"coding":[{"code":"6298-4","display":"Potassium","system":"http://loinc.org"}],"text":"Potassium"},"context":{"reference":"Encounter/32c91f9a-1c56-47b0-893b-7a7e96f620dd"},"effectiveDateTime":"2011-04-12T20:31:34-04:00","id":"2041da7d-ba12-401c-acbe-fbf544d9bd90","issued":"2011-04-12T20:31:34.780-04:00","meta":{"lastUpdated":"2019-04-09T12:03:11.971139+00:00","versionId":"MTU1NDgxMTM5MTk3MTEzOTAwMA"},"resourceType":"Observation","status":"final","subject":{"reference":"Patient/0b03e22a-28fc-4287-a7ad-dd3ba64d985a"},"valueQuantity":{"code":"mmol/L","system":"http://unitsofmeasure.org","unit":"mmol/L","value":4.481287234528236}}},{"resource":{"category":[{"coding":[{"code":"laboratory","display":"laboratory","system":"http://hl7.org/fhir/observation-category"}]}],"code":{"coding":[{"code":"6299-2","display":"Urea Nitrogen","system":"http://loinc.org"}],"text":"Urea Nitrogen"},"context":{"reference":"Encounter/966adb7d-be00-4286-bf73-d99e74597a6a"},"effectiveDateTime":"2018-05-22T20:31:34-04:00","id":"24f49b3d-4fef-4f63-a16a-de7c3822aa1d","issued":"2018-05-22T20:31:34.780-04:00","meta":{"lastUpdated":"2019-04-09T12:03:13.002154+00:00","versionId":"MTU1NDgxMTM5MzAwMjE1NDAwMA"},"resourceType":"Observation","status":"final","subject":{"reference":"Patient/0b03e22a-28fc-4287-a7ad-dd3ba64d985a"},"valueQuantity":{"code":"mg/dL","system":"http://unitsofmeasure.org","unit":"mg/dL","value":8.52796008260097}}},{"resource":{"category":[{"coding":[{"code":"laboratory","display":"laboratory","system":"http://hl7.org/fhir/observation-category"}]}],"code":{"coding":[{"code":"2093-3","display":"Total Cholesterol","system":"http://loinc.org"}],"text":"Total Cholesterol"},"context":{"reference":"Encounter/148cfb83-2127-44ad-9b14-931412c67e8e"},"effectiveDateTime":"2014-04-29T20:31:34-04:00","id":"25b0b572-dbee-46d7-9ff2-8b05058fe315","issued":"2014-04-29T20:31:34.780-04:00","meta":{"lastUpdated":"2019-04-09T12:03:11.984954+00:00","versionId":"MTU1NDgxMTM5MTk4NDk1NDAwMA"},"resourceType":"Observation","status":"final","subject":{"reference":"Patient/0b03e22a-28fc-4287-a7ad-dd3ba64d985a"},"valueQuantity":{"code":"mg/dL","system":"http://unitsofmeasure.org","unit":"mg/dL","value":198.22578923159384}}},{"resource":{"category":[{"coding":[{"code":"vital-signs","display":"vital-signs","system":"http://hl7.org/fhir/observation-category"}]}],"code":{"coding":[{"code":"39156-5","display":"Body Mass Index","system":"http://loinc.org"}],"text":"Body Mass Index"},"context":{"reference":"Encounter/dfb83232-820a-4d46-9e8e-a7102efe9adc"},"effectiveDateTime":"2016-05-10T20:31:34-04:00","id":"262a8617-a18d-435d-9c5f-59156c147979","issued":"2016-05-10T20:31:34.780-04:00","meta":{"lastUpdated":"2019-04-09T12:03:12.026273+00:00","versionId":"MTU1NDgxMTM5MjAyNjI3MzAwMA"},"resourceType":"Observation","status":"final","subject":{"reference":"Patient/0b03e22a-28fc-4287-a7ad-dd3ba64d985a"},"valueQuantity":{"code":"kg/m2","system":"http://unitsofmeasure.org","unit":"kg/m2","value":36.621447712737115}}},{"resource":{"category":[{"coding":[{"code":"laboratory","display":"laboratory","system":"http://hl7.org/fhir/observation-category"}]}],"code":{"coding":[{"code":"38483-4","display":"Creatinine","system":"http://loinc.org"}],"text":"Creatinine"},"context":{"reference":"Encounter/1f965ee2-3430-47ac-ac0d-5c51a2cfd66e"},"effectiveDateTime":"2009-03-31T20:31:34-04:00","id":"2665c4f5-d64f-4ac3-bd88-056a95d58d17","issued":"2009-03-31T20:31:34.780-04:00","meta":{"lastUpdated":"2019-04-09T12:03:10.924603+00:00","versionId":"MTU1NDgxMTM5MDkyNDYwMzAwMA"},"resourceType":"Observation","status":"final","subject":{"reference":"Patient/0b03e22a-28fc-4287-a7ad-dd3ba64d985a"},"valueQuantity":{"code":"mg/dL","system":"http://unitsofmeasure.org","unit":"mg/dL","value":1.0643292446867563}}},{"resource":{"category":[{"coding":[{"code":"laboratory","display":"laboratory","system":"http://hl7.org/fhir/observation-category"}]}],"code":{"coding":[{"code":"4544-3","display":"Hematocrit [Volume Fraction] of Blood by Automated count","system":"http://loinc.org"}],"text":"Hematocrit [Volume Fraction] of Blood by Automated count"},"context":{"reference":"Encounter/5d87b7dc-7929-42e8-bbca-b6ffee7584a6"},"effectiveDateTime":"2017-05-16T20:31:34-04:00","id":"2cac0997-d309-4c51-9a49-c11dd5ade022","issued":"2017-05-16T20:31:34.780-04:00","meta":{"lastUpdated":"2019-04-09T12:03:12.993264+00:00","versionId":"MTU1NDgxMTM5Mjk5MzI2NDAwMA"},"resourceType":"Observation","status":"final","subject":{"reference":"Patient/0b03e22a-28fc-4287-a7ad-dd3ba64d985a"},"valueQuantity":{"code":"%","system":"http://unitsofmeasure.org","unit":"%","value":37.85338272331711}}},{"resource":{"category":[{"coding":[{"code":"survey","display":"survey","system":"http://hl7.org/fhir/observation-category"}]}],"code":{"coding":[{"code":"72166-2","display":"Tobacco smoking status NHIS","system":"http://loinc.org"}],"text":"Tobacco smoking status NHIS"},"context":{"reference":"Encounter/32c91f9a-1c56-47b0-893b-7a7e96f620dd"},"effectiveDateTime":"2011-04-12T20:31:34-04:00","id":"2e10c6e0-3998-4eed-9f36-d58c8fc0b230","issued":"2011-04-12T20:31:34.780-04:00","meta":{"lastUpdated":"2019-04-09T12:03:11.978536+00:00","versionId":"MTU1NDgxMTM5MTk3ODUzNjAwMA"},"resourceType":"Observation","status":"final","subject":{"reference":"Patient/0b03e22a-28fc-4287-a7ad-dd3ba64d985a"},"valueCodeableConcept":{"coding":[{"code":"8517006","display":"Former smoker","system":"http://snomed.info/sct"}],"text":"Former smoker"}}},{"resource":{"category":[{"coding":[{"code":"laboratory","display":"laboratory","system":"http://hl7.org/fhir/observation-category"}]}],"code":{"coding":[{"code":"2085-9","display":"High Density Lipoprotein Cholesterol","system":"http://loinc.org"}],"text":"High Density Lipoprotein Cholesterol"},"context":{"reference":"Encounter/148cfb83-2127-44ad-9b14-931412c67e8e"},"effectiveDateTime":"2014-04-29T20:31:34-04:00","id":"311b9efa-21f9-48b2-8b13-c31da0c3a392","issued":"2014-04-29T20:31:34.780-04:00","meta":{"lastUpdated":"2019-04-09T12:03:11.984453+00:00","versionId":"MTU1NDgxMTM5MTk4NDQ1MzAwMA"},"resourceType":"Observation","status":"final","subject":{"reference":"Patient/0b03e22a-28fc-4287-a7ad-dd3ba64d985a"},"valueQuantity":{"code":"mg/dL","system":"http://unitsofmeasure.org","unit":"mg/dL","value":79.36795139114574}}},{"resource":{"category":[{"coding":[{"code":"laboratory","display":"laboratory","system":"http://hl7.org/fhir/observation-category"}]}],"code":{"coding":[{"code":"2069-3","display":"Chloride","system":"http://loinc.org"}],"text":"Chloride"},"context":{"reference":"Encounter/966adb7d-be00-4286-bf73-d99e74597a6a"},"effectiveDateTime":"2018-05-22T20:31:34-04:00","id":"348686c1-05af-4d80-9082-df0a5fac4ac4","issued":"2018-05-22T20:31:34.780-04:00","meta":{"lastUpdated":"2019-04-09T12:03:13.000230+00:00","versionId":"MTU1NDgxMTM5MzAwMDIzMDAwMA"},"resourceType":"Observation","status":"final","subject":{"reference":"Patient/0b03e22a-28fc-4287-a7ad-dd3ba64d985a"},"valueQuantity":{"code":"mmol/L","system":"http://unitsofmeasure.org","unit":"mmol/L","value":107.78006914868371}}},{"resource":{"category":[{"coding":[{"code":"laboratory","display":"laboratory","system":"http://hl7.org/fhir/observation-category"}]}],"code":{"coding":[{"code":"2339-0","display":"Glucose","system":"http://loinc.org"}],"text":"Glucose"},"context":{"reference":"Encounter/1f965ee2-3430-47ac-ac0d-5c51a2cfd66e"},"effectiveDateTime":"2009-03-31T20:31:34-04:00","id":"361504c3-8ef5-4f1c-99c7-f7987a53955e","issued":"2009-03-31T20:31:34.780-04:00","meta":{"lastUpdated":"2019-04-09T12:03:10.933107+00:00","versionId":"MTU1NDgxMTM5MDkzMzEwNzAwMA"},"resourceType":"Observation","status":"final","subject":{"reference":"Patient/0b03e22a-28fc-4287-a7ad-dd3ba64d985a"},"valueQuantity":{"code":"mg/dL","system":"http://unitsofmeasure.org","unit":"mg/dL","value":70.96223889956659}}},{"resource":{"category":[{"coding":[{"code":"laboratory","display":"laboratory","system":"http://hl7.org/fhir/observation-category"}]}],"code":{"coding":[{"code":"18262-6","display":"Low Density Lipoprotein Cholesterol","system":"http://loinc.org"}],"text":"Low Density Lipoprotein Cholesterol"},"context":{"reference":"Encounter/5d87b7dc-7929-42e8-bbca-b6ffee7584a6"},"effectiveDateTime":"2017-05-16T20:31:34-04:00","id":"3761973a-fd56-45f0-919c-c672a3068708","issued":"2017-05-16T20:31:34.780-04:00","meta":{"lastUpdated":"2019-04-09T12:03:12.984759+00:00","versionId":"MTU1NDgxMTM5Mjk4NDc1OTAwMA"},"resourceType":"Observation","status":"final","subject":{"reference":"Patient/0b03e22a-28fc-4287-a7ad-dd3ba64d985a"},"valueQuantity":{"code":"mg/dL","system":"http://unitsofmeasure.org","unit":"mg/dL","value":85.14353309181827}}},{"resource":{"category":[{"coding":[{"code":"laboratory","display":"laboratory","system":"http://hl7.org/fhir/observation-category"}]}],"code":{"coding":[{"code":"2339-0","display":"Glucose","system":"http://loinc.org"}],"text":"Glucose"},"context":{"reference":"Encounter/5d87b7dc-7929-42e8-bbca-b6ffee7584a6"},"effectiveDateTime":"2017-05-16T20:31:34-04:00","id":"39ecd1d8-80ea-4eb1-bc3b-d82e686a2d1d","issued":"2017-05-16T20:31:34.780-04:00","meta":{"lastUpdated":"2019-04-09T12:03:13.000193+00:00","versionId":"MTU1NDgxMTM5MzAwMDE5MzAwMA"},"resourceType":"Observation","status":"final","subject":{"reference":"Patient/0b03e22a-28fc-4287-a7ad-dd3ba64d985a"},"valueQuantity":{"code":"mg/dL","system":"http://unitsofmeasure.org","unit":"mg/dL","value":82.54495587071781}}},{"resource":{"category":[{"coding":[{"code":"laboratory","display":"laboratory","system":"http://hl7.org/fhir/observation-category"}]}],"code":{"coding":[{"code":"2947-0","display":"Sodium","system":"http://loinc.org"}],"text":"Sodium"},"context":{"reference":"Encounter/d93a40da-1b46-4f48-9a38-de2d24a0ae4a"},"effectiveDateTime":"2015-05-05T20:31:34-04:00","id":"3b5d1c33-455f-4faa-8620-41a9b13e58d1","issued":"2015-05-05T20:31:34.780-04:00","meta":{"lastUpdated":"2019-04-09T12:03:12.025435+00:00","versionId":"MTU1NDgxMTM5MjAyNTQzNTAwMA"},"resourceType":"Observation","status":"final","subject":{"reference":"Patient/0b03e22a-28fc-4287-a7ad-dd3ba64d985a"},"valueQuantity":{"code":"mmol/L","system":"http://unitsofmeasure.org","unit":"mmol/L","value":137.37854194964387}}},{"resource":{"category":[{"coding":[{"code":"vital-signs","display":"vital-signs","system":"http://hl7.org/fhir/observation-category"}]}],"code":{"coding":[{"code":"29463-7","display":"Body Weight","system":"http://loinc.org"}],"text":"Body Weight"},"context":{"reference":"Encounter/148cfb83-2127-44ad-9b14-931412c67e8e"},"effectiveDateTime":"2014-04-29T20:31:34-04:00","id":"3f1c6919-ca1e-4c9c-bb88-2a42800d2b53","issued":"2014-04-29T20:31:34.780-04:00","meta":{"lastUpdated":"2019-04-09T12:03:11.984961+00:00","versionId":"MTU1NDgxMTM5MTk4NDk2MTAwMA"},"resourceType":"Observation","status":"final","subject":{"reference":"Patient/0b03e22a-28fc-4287-a7ad-dd3ba64d985a"},"valueQuantity":{"code":"kg","system":"http://unitsofmeasure.org","unit":"kg","value":101.53233346324244}}},{"resource":{"category":[{"coding":[{"code":"laboratory","display":"laboratory","system":"http://hl7.org/fhir/observation-category"}]}],"code":{"coding":[{"code":"4548-4","display":"Hemoglobin A1c/Hemoglobin.total in Blood","system":"http://loinc.org"}],"text":"Hemoglobin A1c/Hemoglobin.total in Blood"},"context":{"reference":"Encounter/4dbb9a26-560b-414c-b58e-ad2e944c0aa4"},"effectiveDateTime":"2010-04-06T20:31:34-04:00","id":"3f62ebc5-3458-40e2-9c53-6b3bbb14e883","issued":"2010-04-06T20:31:34.780-04:00","meta":{"lastUpdated":"2019-04-09T12:03:11.974564+00:00","versionId":"MTU1NDgxMTM5MTk3NDU2NDAwMA"},"resourceType":"Observation","status":"final","subject":{"reference":"Patient/0b03e22a-28fc-4287-a7ad-dd3ba64d985a"},"valueQuantity":{"code":"%","system":"http://unitsofmeasure.org","unit":"%","value":5.852285314303005}}},{"resource":{"category":[{"coding":[{"code":"laboratory","display":"laboratory","system":"http://hl7.org/fhir/observation-category"}]}],"code":{"coding":[{"code":"786-4","display":"MCHC [Mass/volume] by Automated count","system":"http://loinc.org"}],"text":"MCHC [Mass/volume] by Automated count"},"context":{"reference":"Encounter/5d87b7dc-7929-42e8-bbca-b6ffee7584a6"},"effectiveDateTime":"2017-05-16T20:31:34-04:00","id":"40cf76a5-a2a3-4891-a372-2b62f8a56369","issued":"2017-05-16T20:31:34.780-04:00","meta":{"lastUpdated":"2019-04-09T12:03:13.000190+00:00","versionId":"MTU1NDgxMTM5MzAwMDE5MDAwMA"},"resourceType":"Observation","status":"final","subject":{"reference":"Patient/0b03e22a-28fc-4287-a7ad-dd3ba64d985a"},"valueQuantity":{"code":"g/dL","system":"http://unitsofmeasure.org","unit":"g/dL","value":33.123604739396654}}},{"resource":{"category":[{"coding":[{"code":"laboratory","display":"laboratory","system":"http://hl7.org/fhir/observation-category"}]}],"code":{"coding":[{"code":"49765-1","display":"Calcium","system":"http://loinc.org"}],"text":"Calcium"},"context":{"reference":"Encounter/32c91f9a-1c56-47b0-893b-7a7e96f620dd"},"effectiveDateTime":"2011-04-12T20:31:34-04:00","id":"41dd59f2-b965-4716-a390-c16e46014c7a","issued":"2011-04-12T20:31:34.780-04:00","meta":{"lastUpdated":"2019-04-09T12:03:11.979248+00:00","versionId":"MTU1NDgxMTM5MTk3OTI0ODAwMA"},"resourceType":"Observation","status":"final","subject":{"reference":"Patient/0b03e22a-28fc-4287-a7ad-dd3ba64d985a"},"valueQuantity":{"code":"mg/dL","system":"http://unitsofmeasure.org","unit":"mg/dL","value":9.887593569221451}}},{"resource":{"category":[{"coding":[{"code":"vital-signs","display":"vital-signs","system":"http://hl7.org/fhir/observation-category"}]}],"code":{"coding":[{"code":"72514-3","display":"Pain severity - 0-10 verbal numeric rating [Score] - Reported","system":"http://loinc.org"}],"text":"Pain severity - 0-10 verbal numeric rating [Score] - Reported"},"context":{"reference":"Encounter/32c91f9a-1c56-47b0-893b-7a7e96f620dd"},"effectiveDateTime":"2011-04-12T20:31:34-04:00","id":"43424508-7a2e-4483-85fc-66e14bfd37e6","issued":"2011-04-12T20:31:34.780-04:00","meta":{"lastUpdated":"2019-04-09T12:03:11.978427+00:00","versionId":"MTU1NDgxMTM5MTk3ODQyNzAwMA"},"resourceType":"Observation","status":"final","subject":{"reference":"Patient/0b03e22a-28fc-4287-a7ad-dd3ba64d985a"},"valueQuantity":{"code":"{score}","system":"http://unitsofmeasure.org","unit":"{score}","value":1.232904621944733}}},{"resource":{"category":[{"coding":[{"code":"laboratory","display":"laboratory","system":"http://hl7.org/fhir/observation-category"}]}],"code":{"coding":[{"code":"2947-0","display":"Sodium","system":"http://loinc.org"}],"text":"Sodium"},"context":{"reference":"Encounter/966adb7d-be00-4286-bf73-d99e74597a6a"},"effectiveDateTime":"2018-05-22T20:31:34-04:00","id":"434dc35f-1c5e-47cc-b357-cc4bbbcb5bd1","issued":"2018-05-22T20:31:34.780-04:00","meta":{"lastUpdated":"2019-04-09T12:03:13.002155+00:00","versionId":"MTU1NDgxMTM5MzAwMjE1NTAwMA"},"resourceType":"Observation","status":"final","subject":{"reference":"Patient/0b03e22a-28fc-4287-a7ad-dd3ba64d985a"},"valueQuantity":{"code":"mmol/L","system":"http://unitsofmeasure.org","unit":"mmol/L","value":138.21173370570352}}},{"resource":{"category":[{"coding":[{"code":"laboratory","display":"laboratory","system":"http://hl7.org/fhir/observation-category"}]}],"code":{"coding":[{"code":"32207-3","display":"Platelet distribution width [Entitic volume] in Blood by Automated count","system":"http://loinc.org"}],"text":"Platelet distribution width [Entitic volume] in Blood by Automated count"},"context":{"reference":"Encounter/5d87b7dc-7929-42e8-bbca-b6ffee7584a6"},"effectiveDateTime":"2017-05-16T20:31:34-04:00","id":"45df1a52-5e2c-43f7-a11f-e6cd941bb72b","issued":"2017-05-16T20:31:34.780-04:00","meta":{"lastUpdated":"2019-04-09T12:03:12.996128+00:00","versionId":"MTU1NDgxMTM5Mjk5NjEyODAwMA"},"resourceType":"Observation","status":"final","subject":{"reference":"Patient/0b03e22a-28fc-4287-a7ad-dd3ba64d985a"},"valueQuantity":{"code":"fL","system":"http://unitsofmeasure.org","unit":"fL","value":334.4781248138871}}},{"resource":{"category":[{"coding":[{"code":"laboratory","display":"laboratory","system":"http://hl7.org/fhir/observation-category"}]}],"code":{"coding":[{"code":"2339-0","display":"Glucose","system":"http://loinc.org"}],"text":"Glucose"},"context":{"reference":"Encounter/d93a40da-1b46-4f48-9a38-de2d24a0ae4a"},"effectiveDateTime":"2015-05-05T20:31:34-04:00","id":"47c06c7e-d322-442c-8207-bae641b6bc7a","issued":"2015-05-05T20:31:34.780-04:00","meta":{"lastUpdated":"2019-04-09T12:03:12.026045+00:00","versionId":"MTU1NDgxMTM5MjAyNjA0NTAwMA"},"resourceType":"Observation","status":"final","subject":{"reference":"Patient/0b03e22a-28fc-4287-a7ad-dd3ba64d985a"},"valueQuantity":{"code":"mg/dL","system":"http://unitsofmeasure.org","unit":"mg/dL","value":76.82557899332338}}},{"resource":{"category":[{"coding":[{"code":"laboratory","display":"laboratory","system":"http://hl7.org/fhir/observation-category"}]}],"code":{"coding":[{"code":"20565-8","display":"Carbon Dioxide","system":"http://loinc.org"}],"text":"Carbon Dioxide"},"context":{"reference":"Encounter/d93a40da-1b46-4f48-9a38-de2d24a0ae4a"},"effectiveDateTime":"2015-05-05T20:31:34-04:00","id":"4ab0987d-681d-4f0b-ad5f-7f17cbda223b","issued":"2015-05-05T20:31:34.780-04:00","meta":{"lastUpdated":"2019-04-09T12:03:12.035932+00:00","versionId":"MTU1NDgxMTM5MjAzNTkzMjAwMA"},"resourceType":"Observation","status":"final","subject":{"reference":"Patient/0b03e22a-28fc-4287-a7ad-dd3ba64d985a"},"valueQuantity":{"code":"mmol/L","system":"http://unitsofmeasure.org","unit":"mmol/L","value":20.937218267534625}}},{"resource":{"category":[{"coding":[{"code":"laboratory","display":"laboratory","system":"http://hl7.org/fhir/observation-category"}]}],"code":{"coding":[{"code":"2947-0","display":"Sodium","system":"http://loinc.org"}],"text":"Sodium"},"context":{"reference":"Encounter/9af77cea-44ae-42a9-af17-1057b693836d"},"effectiveDateTime":"2012-04-17T20:31:34-04:00","id":"4b37293b-fb39-45dd-a2ae-de4c3ad994c9","issued":"2012-04-17T20:31:34.780-04:00","meta":{"lastUpdated":"2019-04-09T12:03:11.982372+00:00","versionId":"MTU1NDgxMTM5MTk4MjM3MjAwMA"},"resourceType":"Observation","status":"final","subject":{"reference":"Patient/0b03e22a-28fc-4287-a7ad-dd3ba64d985a"},"valueQuantity":{"code":"mmol/L","system":"http://unitsofmeasure.org","unit":"mmol/L","value":142.38170229478325}}},{"resource":{"category":[{"coding":[{"code":"vital-signs","display":"vital-signs","system":"http://hl7.org/fhir/observation-category"}]}],"code":{"coding":[{"code":"39156-5","display":"Body Mass Index","system":"http://loinc.org"}],"text":"Body Mass Index"},"context":{"reference":"Encounter/5d87b7dc-7929-42e8-bbca-b6ffee7584a6"},"effectiveDateTime":"2017-05-16T20:31:34-04:00","id":"4e13e7c7-c2d2-433b-9e08-2d7d764e85fe","issued":"2017-05-16T20:31:34.780-04:00","meta":{"lastUpdated":"2019-04-09T12:03:12.984840+00:00","versionId":"MTU1NDgxMTM5Mjk4NDg0MDAwMA"},"resourceType":"Observation","status":"final","subject":{"reference":"Patient/0b03e22a-28fc-4287-a7ad-dd3ba64d985a"},"valueQuantity":{"code":"kg/m2","system":"http://unitsofmeasure.org","unit":"kg/m2","value":36.113378797709125}}},{"resource":{"category":[{"coding":[{"code":"survey","display":"survey","system":"http://hl7.org/fhir/observation-category"}]}],"code":{"coding":[{"code":"72166-2","display":"Tobacco smoking status NHIS","system":"http://loinc.org"}],"text":"Tobacco smoking status NHIS"},"context":{"reference":"Encounter/966adb7d-be00-4286-bf73-d99e74597a6a"},"effectiveDateTime":"2018-05-22T20:31:34-04:00","id":"4ec715d9-9eb4-4522-be30-21ae9d8d6e59","issued":"2018-05-22T20:31:34.780-04:00","meta":{"lastUpdated":"2019-04-09T12:03:13.000158+00:00","versionId":"MTU1NDgxMTM5MzAwMDE1ODAwMA"},"resourceType":"Observation","status":"final","subject":{"reference":"Patient/0b03e22a-28fc-4287-a7ad-dd3ba64d985a"},"valueCodeableConcept":{"coding":[{"code":"8517006","display":"Former smoker","system":"http://snomed.info/sct"}],"text":"Former smoker"}}},{"resource":{"category":[{"coding":[{"code":"laboratory","display":"laboratory","system":"http://hl7.org/fhir/observation-category"}]}],"code":{"coding":[{"code":"6690-2","display":"Leukocytes [#/volume] in Blood by Automated count","system":"http://loinc.org"}],"text":"Leukocytes [#/volume] in Blood by Automated count"},"context":{"reference":"Encounter/5d87b7dc-7929-42e8-bbca-b6ffee7584a6"},"effectiveDateTime":"2017-05-16T20:31:34-04:00","id":"4ef81bd0-d20a-4863-8e52-4ac0978ae5d0","issued":"2017-05-16T20:31:34.780-04:00","meta":{"lastUpdated":"2019-04-09T12:03:12.993624+00:00","versionId":"MTU1NDgxMTM5Mjk5MzYyNDAwMA"},"resourceType":"Observation","status":"final","subject":{"reference":"Patient/0b03e22a-28fc-4287-a7ad-dd3ba64d985a"},"valueQuantity":{"code":"10*3/uL","system":"http://unitsofmeasure.org","unit":"10*3/uL","value":3.793286909749085}}},{"resource":{"category":[{"coding":[{"code":"vital-signs","display":"vital-signs","system":"http://hl7.org/fhir/observation-category"}]}],"code":{"coding":[{"code":"72514-3","display":"Pain severity - 0-10 verbal numeric rating [Score] - Reported","system":"http://loinc.org"}],"text":"Pain severity - 0-10 verbal numeric rating [Score] - Reported"},"context":{"reference":"Encounter/966adb7d-be00-4286-bf73-d99e74597a6a"},"effectiveDateTime":"2018-05-22T20:31:34-04:00","id":"526faa14-2fd0-498e-bb74-b9be453d63d9","issued":"2018-05-22T20:31:34.780-04:00","meta":{"lastUpdated":"2019-04-09T12:03:13.002152+00:00","versionId":"MTU1NDgxMTM5MzAwMjE1MjAwMA"},"resourceType":"Observation","status":"final","subject":{"reference":"Patient/0b03e22a-28fc-4287-a7ad-dd3ba64d985a"},"valueQuantity":{"code":"{score}","system":"http://unitsofmeasure.org","unit":"{score}","value":3.139555343675995}}},{"resource":{"category":[{"coding":[{"code":"laboratory","display":"laboratory","system":"http://hl7.org/fhir/observation-category"}]}],"code":{"coding":[{"code":"6299-2","display":"Urea Nitrogen","system":"http://loinc.org"}],"text":"Urea Nitrogen"},"context":{"reference":"Encounter/d93a40da-1b46-4f48-9a38-de2d24a0ae4a"},"effectiveDateTime":"2015-05-05T20:31:34-04:00","id":"53b54d6d-2758-4715-b5fd-5225e1787848","issued":"2015-05-05T20:31:34.780-04:00","meta":{"lastUpdated":"2019-04-09T12:03:12.026327+00:00","versionId":"MTU1NDgxMTM5MjAyNjMyNzAwMA"},"resourceType":"Observation","status":"final","subject":{"reference":"Patient/0b03e22a-28fc-4287-a7ad-dd3ba64d985a"},"valueQuantity":{"code":"mg/dL","system":"http://unitsofmeasure.org","unit":"mg/dL","value":16.377535139233547}}},{"resource":{"category":[{"coding":[{"code":"vital-signs","display":"vital-signs","system":"http://hl7.org/fhir/observation-category"}]}],"code":{"coding":[{"code":"29463-7","display":"Body Weight","system":"http://loinc.org"}],"text":"Body Weight"},"context":{"reference":"Encounter/32c91f9a-1c56-47b0-893b-7a7e96f620dd"},"effectiveDateTime":"2011-04-12T20:31:34-04:00","id":"53c48e23-7925-4749-bfaf-232c1a2ecf1e","issued":"2011-04-12T20:31:34.780-04:00","meta":{"lastUpdated":"2019-04-09T12:03:11.988738+00:00","versionId":"MTU1NDgxMTM5MTk4ODczODAwMA"},"resourceType":"Observation","status":"final","subject":{"reference":"Patient/0b03e22a-28fc-4287-a7ad-dd3ba64d985a"},"valueQuantity":{"code":"kg","system":"http://unitsofmeasure.org","unit":"kg","value":104.98513565318147}}},{"resource":{"category":[{"coding":[{"code":"laboratory","display":"laboratory","system":"http://hl7.org/fhir/observation-category"}]}],"code":{"coding":[{"code":"4548-4","display":"Hemoglobin A1c/Hemoglobin.total in Blood","system":"http://loinc.org"}],"text":"Hemoglobin A1c/Hemoglobin.total in Blood"},"context":{"reference":"Encounter/dfb83232-820a-4d46-9e8e-a7102efe9adc"},"effectiveDateTime":"2016-05-10T20:31:34-04:00","id":"53ef52ac-789d-4d17-bf34-910b52020463","issued":"2016-05-10T20:31:34.780-04:00","meta":{"lastUpdated":"2019-04-09T12:03:12.033715+00:00","versionId":"MTU1NDgxMTM5MjAzMzcxNTAwMA"},"resourceType":"Observation","status":"final","subject":{"reference":"Patient/0b03e22a-28fc-4287-a7ad-dd3ba64d985a"},"valueQuantity":{"code":"%","system":"http://unitsofmeasure.org","unit":"%","value":5.838612683819007}}},{"resource":{"category":[{"coding":[{"code":"survey","display":"survey","system":"http://hl7.org/fhir/observation-category"}]}],"code":{"coding":[{"code":"72166-2","display":"Tobacco smoking status NHIS","system":"http://loinc.org"}],"text":"Tobacco smoking status NHIS"},"context":{"reference":"Encounter/5d87b7dc-7929-42e8-bbca-b6ffee7584a6"},"effectiveDateTime":"2017-05-16T20:31:34-04:00","id":"5508eedf-ee5d-4a24-9988-b1849d545888","issued":"2017-05-16T20:31:34.780-04:00","meta":{"lastUpdated":"2019-04-09T12:03:12.995938+00:00","versionId":"MTU1NDgxMTM5Mjk5NTkzODAwMA"},"resourceType":"Observation","status":"final","subject":{"reference":"Patient/0b03e22a-28fc-4287-a7ad-dd3ba64d985a"},"valueCodeableConcept":{"coding":[{"code":"8517006","display":"Former smoker","system":"http://snomed.info/sct"}],"text":"Former smoker"}}},{"resource":{"category":[{"coding":[{"code":"laboratory","display":"laboratory","system":"http://hl7.org/fhir/observation-category"}]}],"code":{"coding":[{"code":"6299-2","display":"Urea Nitrogen","system":"http://loinc.org"}],"text":"Urea Nitrogen"},"context":{"reference":"Encounter/1f965ee2-3430-47ac-ac0d-5c51a2cfd66e"},"effectiveDateTime":"2009-03-31T20:31:34-04:00","id":"55edadf5-829d-463f-8d67-8d29ac7f8a07","issued":"2009-03-31T20:31:34.780-04:00","meta":{"lastUpdated":"2019-04-09T12:03:10.933106+00:00","versionId":"MTU1NDgxMTM5MDkzMzEwNjAwMA"},"resourceType":"Observation","status":"final","subject":{"reference":"Patient/0b03e22a-28fc-4287-a7ad-dd3ba64d985a"},"valueQuantity":{"code":"mg/dL","system":"http://unitsofmeasure.org","unit":"mg/dL","value":16.76691726890065}}},{"resource":{"category":[{"coding":[{"code":"laboratory","display":"laboratory","system":"http://hl7.org/fhir/observation-category"}]}],"code":{"coding":[{"code":"2339-0","display":"Glucose","system":"http://loinc.org"}],"text":"Glucose"},"context":{"reference":"Encounter/dfb83232-820a-4d46-9e8e-a7102efe9adc"},"effectiveDateTime":"2016-05-10T20:31:34-04:00","id":"567ed46e-4723-405a-81da-6bedd36fa916","issued":"2016-05-10T20:31:34.780-04:00","meta":{"lastUpdated":"2019-04-09T12:03:12.026330+00:00","versionId":"MTU1NDgxMTM5MjAyNjMzMDAwMA"},"resourceType":"Observation","status":"final","subject":{"reference":"Patient/0b03e22a-28fc-4287-a7ad-dd3ba64d985a"},"valueQuantity":{"code":"mg/dL","system":"http://unitsofmeasure.org","unit":"mg/dL","value":76.68376088937218}}},{"resource":{"category":[{"coding":[{"code":"laboratory","display":"laboratory","system":"http://hl7.org/fhir/observation-category"}]}],"code":{"coding":[{"code":"6299-2","display":"Urea Nitrogen","system":"http://loinc.org"}],"text":"Urea Nitrogen"},"context":{"reference":"Encounter/5d87b7dc-7929-42e8-bbca-b6ffee7584a6"},"effectiveDateTime":"2017-05-16T20:31:34-04:00","id":"5784345a-de66-440d-a1dc-787c1f950dcf","issued":"2017-05-16T20:31:34.780-04:00","meta":{"lastUpdated":"2019-04-09T12:03:12.984697+00:00","versionId":"MTU1NDgxMTM5Mjk4NDY5NzAwMA"},"resourceType":"Observation","status":"final","subject":{"reference":"Patient/0b03e22a-28fc-4287-a7ad-dd3ba64d985a"},"valueQuantity":{"code":"mg/dL","system":"http://unitsofmeasure.org","unit":"mg/dL","value":10.137516921846725}}},{"resource":{"category":[{"coding":[{"code":"laboratory","display":"laboratory","system":"http://hl7.org/fhir/observation-category"}]}],"code":{"coding":[{"code":"38483-4","display":"Creatinine","system":"http://loinc.org"}],"text":"Creatinine"},"context":{"reference":"Encounter/dfb83232-820a-4d46-9e8e-a7102efe9adc"},"effectiveDateTime":"2016-05-10T20:31:34-04:00","id":"59616694-5ea5-4447-8607-6ca8ec09df26","issued":"2016-05-10T20:31:34.780-04:00","meta":{"lastUpdated":"2019-04-09T12:03:12.026508+00:00","versionId":"MTU1NDgxMTM5MjAyNjUwODAwMA"},"resourceType":"Observation","status":"final","subject":{"reference":"Patient/0b03e22a-28fc-4287-a7ad-dd3ba64d985a"},"valueQuantity":{"code":"mg/dL","system":"http://unitsofmeasure.org","unit":"mg/dL","value":1.0004463406931547}}},{"resource":{"category":[{"coding":[{"code":"vital-signs","display":"vital-signs","system":"http://hl7.org/fhir/observation-category"}]}],"code":{"coding":[{"code":"72514-3","display":"Pain severity - 0-10 verbal numeric rating [Score] - Reported","system":"http://loinc.org"}],"text":"Pain severity - 0-10 verbal numeric rating [Score] - Reported"},"context":{"reference":"Encounter/1f965ee2-3430-47ac-ac0d-5c51a2cfd66e"},"effectiveDateTime":"2009-03-31T20:31:34-04:00","id":"59e4dbc1-e233-40af-9e2d-f55d196ba85c","issued":"2009-03-31T20:31:34.780-04:00","meta":{"lastUpdated":"2019-04-09T12:03:10.920312+00:00","versionId":"MTU1NDgxMTM5MDkyMDMxMjAwMA"},"resourceType":"Observation","status":"final","subject":{"reference":"Patient/0b03e22a-28fc-4287-a7ad-dd3ba64d985a"},"valueQuantity":{"code":"{score}","system":"http://unitsofmeasure.org","unit":"{score}","value":1.798572499002372}}},{"resource":{"category":[{"coding":[{"code":"vital-signs","display":"vital-signs","system":"http://hl7.org/fhir/observation-category"}]}],"code":{"coding":[{"code":"8302-2","display":"Body Height","system":"http://loinc.org"}],"text":"Body Height"},"context":{"reference":"Encounter/dfb83232-820a-4d46-9e8e-a7102efe9adc"},"effectiveDateTime":"2016-05-10T20:31:34-04:00","id":"5b7d8240-23a8-4adf-afde-9572f6919847","issued":"2016-05-10T20:31:34.780-04:00","meta":{"lastUpdated":"2019-04-09T12:03:12.026329+00:00","versionId":"MTU1NDgxMTM5MjAyNjMyOTAwMA"},"resourceType":"Observation","status":"final","subject":{"reference":"Patient/0b03e22a-28fc-4287-a7ad-dd3ba64d985a"},"valueQuantity":{"code":"cm","system":"http://unitsofmeasure.org","unit":"cm","value":162.5022145152575}}},{"resource":{"category":[{"coding":[{"code":"laboratory","display":"laboratory","system":"http://hl7.org/fhir/observation-category"}]}],"code":{"coding":[{"code":"32207-3","display":"Platelet distribution width [Entitic volume] in Blood by Automated count","system":"http://loinc.org"}],"text":"Platelet distribution width [Entitic volume] in Blood by Automated count"},"context":{"reference":"Encounter/9af77cea-44ae-42a9-af17-1057b693836d"},"effectiveDateTime":"2012-04-17T20:31:34-04:00","id":"5be19255-ea8b-401d-ab8e-babedd614ef3","issued":"2012-04-17T20:31:34.780-04:00","meta":{"lastUpdated":"2019-04-09T12:03:11.982373+00:00","versionId":"MTU1NDgxMTM5MTk4MjM3MzAwMA"},"resourceType":"Observation","status":"final","subject":{"reference":"Patient/0b03e22a-28fc-4287-a7ad-dd3ba64d985a"},"valueQuantity":{"code":"fL","system":"http://unitsofmeasure.org","unit":"fL","value":165.34379306157356}}},{"resource":{"category":[{"coding":[{"code":"vital-signs","display":"vital-signs","system":"http://hl7.org/fhir/observation-category"}]}],"code":{"coding":[{"code":"29463-7","display":"Body Weight","system":"http://loinc.org"}],"text":"Body Weight"},"context":{"reference":"Encounter/d93a40da-1b46-4f48-9a38-de2d24a0ae4a"},"effectiveDateTime":"2015-05-05T20:31:34-04:00","id":"5c8d2495-f43a-421a-bb14-1abd8154037d","issued":"2015-05-05T20:31:34.780-04:00","meta":{"lastUpdated":"2019-04-09T12:03:12.025796+00:00","versionId":"MTU1NDgxMTM5MjAyNTc5NjAwMA"},"resourceType":"Observation","status":"final","subject":{"reference":"Patient/0b03e22a-28fc-4287-a7ad-dd3ba64d985a"},"valueQuantity":{"code":"kg","system":"http://unitsofmeasure.org","unit":"kg","value":99.63626214243322}}},{"resource":{"category":[{"coding":[{"code":"laboratory","display":"laboratory","system":"http://hl7.org/fhir/observation-category"}]}],"code":{"coding":[{"code":"20565-8","display":"Carbon Dioxide","system":"http://loinc.org"}],"text":"Carbon Dioxide"},"context":{"reference":"Encounter/dfb83232-820a-4d46-9e8e-a7102efe9adc"},"effectiveDateTime":"2016-05-10T20:31:34-04:00","id":"5f1a78f0-f6fb-4926-85c0-019f9cc247d7","issued":"2016-05-10T20:31:34.780-04:00","meta":{"lastUpdated":"2019-04-09T12:03:12.026888+00:00","versionId":"MTU1NDgxMTM5MjAyNjg4ODAwMA"},"resourceType":"Observation","status":"final","subject":{"reference":"Patient/0b03e22a-28fc-4287-a7ad-dd3ba64d985a"},"valueQuantity":{"code":"mmol/L","system":"http://unitsofmeasure.org","unit":"mmol/L","value":26.337600631683486}}},{"resource":{"category":[{"coding":[{"code":"laboratory","display":"laboratory","system":"http://hl7.org/fhir/observation-category"}]}],"code":{"coding":[{"code":"2085-9","display":"High Density Lipoprotein Cholesterol","system":"http://loinc.org"}],"text":"High Density Lipoprotein Cholesterol"},"context":{"reference":"Encounter/5d87b7dc-7929-42e8-bbca-b6ffee7584a6"},"effectiveDateTime":"2017-05-16T20:31:34-04:00","id":"5f8abb2c-9901-4d56-88be-2701287d2a7b","issued":"2017-05-16T20:31:34.780-04:00","meta":{"lastUpdated":"2019-04-09T12:03:13.003654+00:00","versionId":"MTU1NDgxMTM5MzAwMzY1NDAwMA"},"resourceType":"Observation","status":"final","subject":{"reference":"Patient/0b03e22a-28fc-4287-a7ad-dd3ba64d985a"},"valueQuantity":{"code":"mg/dL","system":"http://unitsofmeasure.org","unit":"mg/dL","value":69.86742966354197}}},{"resource":{"category":[{"coding":[{"code":"laboratory","display":"laboratory","system":"http://hl7.org/fhir/observation-category"}]}],"code":{"coding":[{"code":"4548-4","display":"Hemoglobin A1c/Hemoglobin.total in Blood","system":"http://loinc.org"}],"text":"Hemoglobin A1c/Hemoglobin.total in Blood"},"context":{"reference":"Encounter/d93a40da-1b46-4f48-9a38-de2d24a0ae4a"},"effectiveDateTime":"2015-05-05T20:31:34-04:00","id":"6047ed18-2e36-4f91-866c-19d6433d6427","issued":"2015-05-05T20:31:34.780-04:00","meta":{"lastUpdated":"2019-04-09T12:03:12.035935+00:00","versionId":"MTU1NDgxMTM5MjAzNTkzNTAwMA"},"resourceType":"Observation","status":"final","subject":{"reference":"Patient/0b03e22a-28fc-4287-a7ad-dd3ba64d985a"},"valueQuantity":{"code":"%","system":"http://unitsofmeasure.org","unit":"%","value":6.031951755273957}}},{"resource":{"category":[{"coding":[{"code":"laboratory","display":"laboratory","system":"http://hl7.org/fhir/observation-category"}]}],"code":{"coding":[{"code":"49765-1","display":"Calcium","system":"http://loinc.org"}],"text":"Calcium"},"context":{"reference":"Encounter/4dbb9a26-560b-414c-b58e-ad2e944c0aa4"},"effectiveDateTime":"2010-04-06T20:31:34-04:00","id":"60c818c3-0d2c-45f3-9da1-cd30cb62efc8","issued":"2010-04-06T20:31:34.780-04:00","meta":{"lastUpdated":"2019-04-09T12:03:10.932867+00:00","versionId":"MTU1NDgxMTM5MDkzMjg2NzAwMA"},"resourceType":"Observation","status":"final","subject":{"reference":"Patient/0b03e22a-28fc-4287-a7ad-dd3ba64d985a"},"valueQuantity":{"code":"mg/dL","system":"http://unitsofmeasure.org","unit":"mg/dL","value":8.686961017315387}}},{"resource":{"category":[{"coding":[{"code":"laboratory","display":"laboratory","system":"http://hl7.org/fhir/observation-category"}]}],"code":{"coding":[{"code":"2069-3","display":"Chloride","system":"http://loinc.org"}],"text":"Chloride"},"context":{"reference":"Encounter/801958f3-a98f-42fd-af55-924f706d4e36"},"effectiveDateTime":"2013-04-23T20:31:34-04:00","id":"60f91677-d098-46a9-9c06-489407e780fe","issued":"2013-04-23T20:31:34.780-04:00","meta":{"lastUpdated":"2019-04-09T12:03:11.991845+00:00","versionId":"MTU1NDgxMTM5MTk5MTg0NTAwMA"},"resourceType":"Observation","status":"final","subject":{"reference":"Patient/0b03e22a-28fc-4287-a7ad-dd3ba64d985a"},"valueQuantity":{"code":"mmol/L","system":"http://unitsofmeasure.org","unit":"mmol/L","value":103.64450293278196}}},{"resource":{"category":[{"coding":[{"code":"laboratory","display":"laboratory","system":"http://hl7.org/fhir/observation-category"}]}],"code":{"coding":[{"code":"789-8","display":"Erythrocytes [#/volume] in Blood by Automated count","system":"http://loinc.org"}],"text":"Erythrocytes [#/volume] in Blood by Automated count"},"context":{"reference":"Encounter/9af77cea-44ae-42a9-af17-1057b693836d"},"effectiveDateTime":"2012-04-17T20:31:34-04:00","id":"62220796-149c-45d4-a9b2-b197191477e3","issued":"2012-04-17T20:31:34.780-04:00","meta":{"lastUpdated":"2019-04-09T12:03:11.971162+00:00","versionId":"MTU1NDgxMTM5MTk3MTE2MjAwMA"},"resourceType":"Observation","status":"final","subject":{"reference":"Patient/0b03e22a-28fc-4287-a7ad-dd3ba64d985a"},"valueQuantity":{"code":"10*6/uL","system":"http://unitsofmeasure.org","unit":"10*6/uL","value":3.9315344880692042}}},{"resource":{"category":[{"coding":[{"code":"vital-signs","display":"vital-signs","system":"http://hl7.org/fhir/observation-category"}]}],"code":{"coding":[{"code":"72514-3","display":"Pain severity - 0-10 verbal numeric rating [Score] - Reported","system":"http://loinc.org"}],"text":"Pain severity - 0-10 verbal numeric rating [Score] - Reported"},"context":{"reference":"Encounter/801958f3-a98f-42fd-af55-924f706d4e36"},"effectiveDateTime":"2013-04-23T20:31:34-04:00","id":"62938a26-5615-462b-9c43-a58becbd0458","issued":"2013-04-23T20:31:34.780-04:00","meta":{"lastUpdated":"2019-04-09T12:03:11.979993+00:00","versionId":"MTU1NDgxMTM5MTk3OTk5MzAwMA"},"resourceType":"Observation","status":"final","subject":{"reference":"Patient/0b03e22a-28fc-4287-a7ad-dd3ba64d985a"},"valueQuantity":{"code":"{score}","system":"http://unitsofmeasure.org","unit":"{score}","value":2.485803039349739}}},{"resource":{"category":[{"coding":[{"code":"vital-signs","display":"vital-signs","system":"http://hl7.org/fhir/observation-category"}]}],"code":{"coding":[{"code":"39156-5","display":"Body Mass Index","system":"http://loinc.org"}],"text":"Body Mass Index"},"context":{"reference":"Encounter/d93a40da-1b46-4f48-9a38-de2d24a0ae4a"},"effectiveDateTime":"2015-05-05T20:31:34-04:00","id":"639f6550-ee77-4a44-aa4f-989aa2435f82","issued":"2015-05-05T20:31:34.780-04:00","meta":{"lastUpdated":"2019-04-09T12:03:12.004238+00:00","versionId":"MTU1NDgxMTM5MjAwNDIzODAwMA"},"resourceType":"Observation","status":"final","subject":{"reference":"Patient/0b03e22a-28fc-4287-a7ad-dd3ba64d985a"},"valueQuantity":{"code":"kg/m2","system":"http://unitsofmeasure.org","unit":"kg/m2","value":37.73104721593867}}},{"resource":{"category":[{"coding":[{"code":"vital-signs","display":"vital-signs","system":"http://hl7.org/fhir/observation-category"}]}],"code":{"coding":[{"code":"72514-3","display":"Pain severity - 0-10 verbal numeric rating [Score] - Reported","system":"http://loinc.org"}],"text":"Pain severity - 0-10 verbal numeric rating [Score] - Reported"},"context":{"reference":"Encounter/d93a40da-1b46-4f48-9a38-de2d24a0ae4a"},"effectiveDateTime":"2015-05-05T20:31:34-04:00","id":"6733ab5a-847a-4a45-be92-c8cc80771f81","issued":"2015-05-05T20:31:34.780-04:00","meta":{"lastUpdated":"2019-04-09T12:03:12.025423+00:00","versionId":"MTU1NDgxMTM5MjAyNTQyMzAwMA"},"resourceType":"Observation","status":"final","subject":{"reference":"Patient/0b03e22a-28fc-4287-a7ad-dd3ba64d985a"},"valueQuantity":{"code":"{score}","system":"http://unitsofmeasure.org","unit":"{score}","value":1.3949165448156617}}},{"resource":{"category":[{"coding":[{"code":"laboratory","display":"laboratory","system":"http://hl7.org/fhir/observation-category"}]}],"code":{"coding":[{"code":"718-7","display":"Hemoglobin [Mass/volume] in Blood","system":"http://loinc.org"}],"text":"Hemoglobin [Mass/volume] in Blood"},"context":{"reference":"Encounter/9af77cea-44ae-42a9-af17-1057b693836d"},"effectiveDateTime":"2012-04-17T20:31:34-04:00","id":"68b7f3d1-b97f-4872-a0fd-0b0120bca038","issued":"2012-04-17T20:31:34.780-04:00","meta":{"lastUpdated":"2019-04-09T12:03:11.971163+00:00","versionId":"MTU1NDgxMTM5MTk3MTE2MzAwMA"},"resourceType":"Observation","status":"final","subject":{"reference":"Patient/0b03e22a-28fc-4287-a7ad-dd3ba64d985a"},"valueQuantity":{"code":"g/dL","system":"http://unitsofmeasure.org","unit":"g/dL","value":12.588851556216431}}},{"resource":{"category":[{"coding":[{"code":"laboratory","display":"laboratory","system":"http://hl7.org/fhir/observation-category"}]}],"code":{"coding":[{"code":"6298-4","display":"Potassium","system":"http://loinc.org"}],"text":"Potassium"},"context":{"reference":"Encounter/801958f3-a98f-42fd-af55-924f706d4e36"},"effectiveDateTime":"2013-04-23T20:31:34-04:00","id":"6b57ad43-68dc-4044-9569-14d021fbf87e","issued":"2013-04-23T20:31:34.780-04:00","meta":{"lastUpdated":"2019-04-09T12:03:11.971184+00:00","versionId":"MTU1NDgxMTM5MTk3MTE4NDAwMA"},"resourceType":"Observation","status":"final","subject":{"reference":"Patient/0b03e22a-28fc-4287-a7ad-dd3ba64d985a"},"valueQuantity":{"code":"mmol/L","system":"http://unitsofmeasure.org","unit":"mmol/L","value":4.203382807665801}}}],"link":[{"url":"https://syntheticmass.mitre.org/v1/fhir/Patient/0b03e22a-28fc-4287-a7ad-dd3ba64d985a/$everything?_count=100&page_token=CoIBcHJvamVjdHMvc3ludGhlYS9sb2NhdGlvbnMvdXMtY2VudHJhbDEvZGF0YXNldHMvMjAxOTAyL2ZoaXJTdG9yZXMvc3ludGhldGljLW1hc3MvZmhpci9QYXRpZW50LzBiMDNlMjJhLTI4ZmMtNDI4Ny1hN2FkLWRkM2JhNjRkOTg1YQ%3D%3D","relation":"previous"},{"url":"https://syntheticmass.mitre.org/v1/fhir/Patient/0b03e22a-28fc-4287-a7ad-dd3ba64d985a/$everything?_count=100&page_token=CoIBcHJvamVjdHMvc3ludGhlYS9sb2NhdGlvbnMvdXMtY2VudHJhbDEvZGF0YXNldHMvMjAxOTAyL2ZoaXJTdG9yZXMvc3ludGhldGljLW1hc3MvZmhpci9QYXRpZW50LzBiMDNlMjJhLTI4ZmMtNDI4Ny1hN2FkLWRkM2JhNjRkOTg1YSDIAQ%3D%3D","relation":"next"}],"total":312}
