{"resourceType":"Bundle","type":"searchset","entry":[{"resource":{"billablePeriod":{"end":"1998-08-26T13:16:28-04:00","start":"1997-08-26T13:16:28-04:00"},"careTeam":[{"provider":{"identifier":{"system":"http://hl7.org/fhir/sid/us-npi","value":"99999999"}},"role":{"coding":[{"code":"primary","display":"Primary Care Practitioner","system":"http://hl7.org/fhir/claimcareteamrole"}]},"sequence":1}],"claim":{"reference":"Claim/41bf04f8-441d-4ed9-a295-11647d9ad2ec"},"contained":[{"id":"1","intent":"order","recipient":[{"identifier":{"system":"http://hl7.org/fhir/sid/us-npi","value":"99999999"}}],"requester":{"agent":{"identifier":{"system":"http://hl7.org/fhir/sid/us-npi","value":"99999999"}}},"resourceType":"ReferralRequest","status":"completed","subject":{"reference":"Patient/0b3ede79-49be-42b4-961e-a0e99e52b473"}},{"id":"coverage","resourceType":"Coverage","type":{"text":"medicare"}}],"created":"1997-08-26T13:16:28-04:00","diagnosis":[{"diagnosisReference":{"reference":"Condition/cbd9b36a-6667-4687-805a-7c8815109db3"},"extension":[{"url":"https://bluebutton.cms.gov/assets/ig/StructureDefinition-bluebutton-inpatient-clm-poa-ind-sw1-extension","valueCoding":{"code":"Y","display":"Diagnosis present at time of admission","system":"https://bluebutton.cms.gov/assets/ig/CodeSystem-clm-poa-ind-sw1"}}],"sequence":1,"type":[{"coding":[{"code":"principal","system":"https://bluebutton.cms.gov/resources/codesystem/diagnosis-type"}]}]}],"id":"b12f71b0-530d-427a-ad91-22afcc997e03","identifier":[{"system":"https://bluebutton.cms.gov/resources/variables/clm_id","value":"41bf04f8-441d-4ed9-a295-11647d9ad2ec"},{"system":"https://bluebutton.cms.gov/resources/identifier/claim-group","value":"99999999999"}],"insurance":{"coverage":{"reference":"#coverage"}},"item":[{"category":{"coding":[{"code":"1","display":"Medical care","system":"https://bluebutton.cms.gov/resources/variables/line_cms_type_srvc_cd"}]},"encounter":[{"reference":"Encounter/2c46a9c2-3d4e-4037-aab1-89910b37c929"}],"locationCodeableConcept":{"coding":[{"code":"21","display":"Inpatient Hospital","system":"https://bluebutton.cms.gov/resources/variables/line_place_of_srvc_cd"}]},"sequence":1,"servicedPeriod":{"end":"1997-08-26T13:16:28-04:00","start":"1997-08-26T13:01:28-04:00"}},{"adjudication":[{"amount":{"code":"USD","system":"urn:iso:std:iso:4217","value":28.104000000000003},"category":{"coding":[{"code":"https://bluebutton.cms.gov/resources/variables/line_coinsrnc_amt","display":"Line Beneficiary Coinsurance Amount","system":"https://bluebutton.cms.gov/resources/codesystem/adjudication"}]}},{"amount":{"code":"USD","system":"urn:iso:std:iso:4217","value":112.41600000000001},"category":{"coding":[{"code":"https://bluebutton.cms.gov/resources/variables/line_prvdr_pmt_amt","display":"Line Provider Payment Amount","system":"https://bluebutton.cms.gov/resources/codesystem/adjudication"}]}},{"amount":{"code":"USD","system":"urn:iso:std:iso:4217","value":140.52},"category":{"coding":[{"code":"https://bluebutton.cms.gov/resources/variables/line_sbmtd_chrg_amt","display":"Line Submitted Charge Amount","system":"https://bluebutton.cms.gov/resources/codesystem/adjudication"}]}},{"amount":{"code":"USD","system":"urn:iso:std:iso:4217","value":140.52},"category":{"coding":[{"code":"https://bluebutton.cms.gov/resources/variables/line_alowd_chrg_amt","display":"Line Allowed Charge Amount","system":"https://bluebutton.cms.gov/resources/codesystem/adjudication"}]}},{"amount":{"code":"USD","system":"urn:iso:std:iso:4217","value":0},"category":{"coding":[{"code":"https://bluebutton.cms.gov/resources/variables/line_bene_ptb_ddctbl_amt","display":"Line Beneficiary Part B Deductible Amount","system":"https://bluebutton.cms.gov/resources/codesystem/adjudication"}]}},{"category":{"coding":[{"code":"https://bluebutton.cms.gov/resources/variables/line_prcsg_ind_cd","display":"Line Processing Indicator Code","system":"https://bluebutton.cms.gov/resources/codesystem/adjudication"}]},"reason":{"coding":[{"code":"A","display":"Allowed","system":"https://bluebutton.cms.gov/resources/variables/line_prcsg_ind_cd"}]}}],"category":{"coding":[{"code":"1","display":"Medical care","system":"https://bluebutton.cms.gov/resources/variables/line_cms_type_srvc_cd"}]},"informationLinkId":[1],"locationCodeableConcept":{"coding":[{"code":"21","display":"Inpatient Hospital","system":"https://bluebutton.cms.gov/resources/variables/line_place_of_srvc_cd"}]},"net":{"code":"USD","system":"urn:iso:std:iso:4217","value":140.52},"sequence":2,"servicedPeriod":{"end":"1997-08-26T13:16:28-04:00","start":"1997-08-26T13:01:28-04:00"}},{"category":{"coding":[{"code":"1","display":"Medical care","system":"https://bluebutton.cms.gov/resources/variables/line_cms_type_srvc_cd"}]},"diagnosisLinkId":[1],"locationCodeableConcept":{"coding":[{"code":"21","display":"Inpatient Hospital","system":"https://bluebutton.cms.gov/resources/variables/line_place_of_srvc_cd"}]},"sequence":3,"servicedPeriod":{"end":"1997-08-26T13:16:28-04:00","start":"1997-08-26T13:01:28-04:00"}}],"meta":{"lastUpdated":"2019-04-09T12:04:02.397048+00:00","versionId":"MTU1NDgxMTQ0MjM5NzA0ODAwMA"},"organization":{"identifier":{"value":"fea46cf5-78cb-45ba-a53c-1889a8b8ee75"}},"patient":{"reference":"Patient/0b3ede79-49be-42b4-961e-a0e99e52b473"},"payment":{"amount":{"code":"USD","system":"urn:iso:std:iso:4217","value":112.41600000000001}},"provider":{"identifier":{"value":"9c1e389b-2076-44ab-917f-7e80069ab8d8"}},"referral":{"reference":"#1"},"resourceType":"ExplanationOfBenefit","status":"active","totalCost":{"code":"USD","system":"urn:iso:std:iso:4217","value":265.52},"type":{"coding":[{"code":"71","display":"Local carrier non-durable medical equipment, prosthetics, orthotics, and supplies (DMEPOS) claim","system":"https://bluebutton.cms.gov/resources/variables/nch_clm_type_cd"},{"code":"CARRIER","display":"EOB Type","system":"https://bluebutton.cms.gov/resources/codesystem/eob-type"},{"code":"professional","display":"Claim Type","system":"http://hl7.org/fhir/ex-claimtype"},{"code":"O","display":"Part B physician/supplier claim record (processed by local carriers; can include DMEPOS services)","system":"https://bluebutton.cms.gov/resources/variables/nch_near_line_rec_ident_cd"}]}}},{"resource":{"billablePeriod":{"end":"1995-02-14T13:28:28-05:00","extension":[{"url":"https://bluebutton.cms.gov/assets/ig/StructureDefinition-bluebutton-inpatient-claim-query-cd-extension","valueCoding":{"code":"3","display":"Final Bill","system":"https://bluebutton.cms.gov/assets/ig/ValueSet-claim-query-cd"}}],"start":"1994-02-14T13:28:28-05:00"},"careTeam":[{"provider":{"identifier":{"system":"http://hl7.org/fhir/sid/us-npi","value":"99999999"}},"role":{"coding":[{"code":"primary","display":"Primary Care Practitioner","system":"http://hl7.org/fhir/claimcareteamrole"}]},"sequence":1}],"contained":[{"id":"coverage","resourceType":"Coverage","type":{"text":"medicare"}}],"diagnosis":[{"diagnosisReference":{"reference":"Condition/c72a36a5-20aa-425b-a2f4-758485433004"},"extension":[{"url":"https://bluebutton.cms.gov/assets/ig/StructureDefinition-bluebutton-inpatient-clm-poa-ind-sw1-extension","valueCoding":{"code":"Y","display":"Diagnosis present at time of admission","system":"https://bluebutton.cms.gov/assets/ig/CodeSystem-clm-poa-ind-sw1"}}],"sequence":1,"type":[{"coding":[{"code":"principal","system":"https://bluebutton.cms.gov/resources/codesystem/diagnosis-type"}]}]}],"extension":[{"url":"https://bluebutton.cms.gov/assets/ig/StructureDefinition-bluebutton-inpatient-ime-op-clm-val-amt-extension","valueMoney":{"code":"USD","system":"urn:iso:std:iso:4217","value":400}},{"url":"https://bluebutton.cms.gov/assets/ig/StructureDefinition-bluebutton-inpatient-dsh-op-clm-val-amt-extension","valueMoney":{"code":"USD","system":"urn:iso:std:iso:4217","value":0}},{"url":"https://bluebutton.cms.gov/assets/ig/StructureDefinition-bluebutton-inpatient-clm-pass-thru-per-diem-amt-extension","valueMoney":{"code":"USD","system":"urn:iso:std:iso:4217","value":0}},{"url":"https://bluebutton.cms.gov/assets/ig/StructureDefinition-bluebutton-inpatient-nch-profnl-cmpnt-chrg-amt-extension","valueMoney":{"code":"USD","system":"urn:iso:std:iso:4217","value":0}},{"url":"https://bluebutton.cms.gov/assets/ig/StructureDefinition-bluebutton-inpatient-clm-tot-pps-cptl-amt-extension","valueMoney":{"code":"USD","system":"urn:iso:std:iso:4217","value":0}},{"url":"https://bluebutton.cms.gov/assets/ig/StructureDefinition-bluebutton-inpatient-nch-bene-ip-ddctbl-amt-extension","valueMoney":{"code":"USD","system":"urn:iso:std:iso:4217","value":0}},{"url":"https://bluebutton.cms.gov/assets/ig/StructureDefinition-bluebutton-inpatient-nch-bene-pta-coinsrnc-lblty-amt-extension","valueMoney":{"code":"USD","system":"urn:iso:std:iso:4217","value":0}},{"url":"https://bluebutton.cms.gov/assets/ig/StructureDefinition-bluebutton-inpatient-nch-ip-ncvrd-chrg-amt-extension","valueMoney":{"code":"USD","system":"urn:iso:std:iso:4217","value":0}},{"url":"https://bluebutton.cms.gov/assets/ig/StructureDefinition-bluebutton-inpatient-nch-ip-tot-ddctn-amt-extension","valueMoney":{"code":"USD","system":"urn:iso:std:iso:4217","value":0}},{"url":"https://bluebutton.cms.gov/assets/ig/StructureDefinition-bluebutton-inpatient-clm-pps-cptl-dsprprtnt-shr-amt-extension","valueMoney":{"code":"USD","system":"urn:iso:std:iso:4217","value":0}},{"url":"https://bluebutton.cms.gov/assets/ig/StructureDefinition-bluebutton-inpatient-clm-pps-cptl-excptn-amt-extension","valueMoney":{"code":"USD","system":"urn:iso:std:iso:4217","value":0}},{"url":"https://bluebutton.cms.gov/assets/ig/StructureDefinition-bluebutton-inpatient-clm-pps-cptl-fsp-amt-extension","valueMoney":{"code":"USD","system":"urn:iso:std:iso:4217","value":0}},{"url":"https://bluebutton.cms.gov/assets/ig/StructureDefinition-bluebutton-inpatient-clm-pps-cptl-ime-amt-extension","valueMoney":{"code":"USD","system":"urn:iso:std:iso:4217","value":400}},{"url":"https://bluebutton.cms.gov/assets/ig/StructureDefinition-bluebutton-inpatient-clm-pps-cptl-outlier-amt-extension","valueMoney":{"code":"USD","system":"urn:iso:std:iso:4217","value":0}},{"url":"https://bluebutton.cms.gov/assets/ig/StructureDefinition-bluebutton-inpatient-clm-pps-old-cptl-hld-hrmls-amt-extension","valueMoney":{"code":"USD","system":"urn:iso:std:iso:4217","value":0}},{"url":"https://bluebutton.cms.gov/assets/ig/StructureDefinition-bluebutton-inpatient-nch-drg-outlier-aprvd-pmt-amt-extension","valueMoney":{"code":"USD","system":"urn:iso:std:iso:4217","value":0}},{"url":"https://bluebutton.cms.gov/assets/ig/StructureDefinition-bluebutton-inpatient-nch-bene-blood-ddctbl-lblty-am-extension","valueMoney":{"code":"USD","system":"urn:iso:std:iso:4217","value":0}},{"url":"https://bluebutton.cms.gov/assets/ig/StructureDefinition-bluebutton-inpatient-clm-mdcr-non-pmt-rsn-cd-extension","valueCoding":{"code":"N","display":"All other reasons for non-payment","system":"https://bluebutton.cms.gov/assets/ig/CodeSystem-clm-mdcr-non-pmt-rsn-cd"}},{"url":"https://bluebutton.cms.gov/assets/ig/StructureDefinition-bluebutton-inpatient-prpayamt-extension","valueMoney":{"code":"USD","system":"urn:iso:std:iso:4217","value":0}},{"url":"https://bluebutton.cms.gov/assets/ig/StructureDefinition-bluebutton-inpatient-fi-num-extension","valueIdentifier":{"system":"https://bluebutton.cms.gov/assets/ig/CodeSystem-fi-num","value":"002000"}}],"id":"b2422b64-4c8b-4b02-bcb8-63cd2e845c92","identifier":[{"system":"https://bluebutton.cms.gov/resources/variables/clm_id","value":"293aafc9-3566-466b-a5a7-4b04539c7404"},{"system":"https://bluebutton.cms.gov/resources/identifier/claim-group","value":"99999999999"}],"insurance":{"coverage":{"reference":"#coverage"}},"item":[{"extension":[{"url":"https://bluebutton.cms.gov/assets/ig/StructureDefinition-bluebutton-inpatient-rev-cntr-ndc-qty-extension","valueQuantity":{"value":0}}],"locationCodeableConcept":{"coding":[{"code":"21","display":"Inpatient Hospital","system":"https://bluebutton.cms.gov/resources/variables/line_place_of_srvc_cd"}]},"sequence":1},{"extension":[{"url":"https://bluebutton.cms.gov/assets/ig/StructureDefinition-bluebutton-inpatient-rev-cntr-ndc-qty-extension","valueQuantity":{"value":0}}],"locationCodeableConcept":{"coding":[{"code":"21","display":"Inpatient Hospital","system":"https://bluebutton.cms.gov/resources/variables/line_place_of_srvc_cd"}]},"sequence":2}],"meta":{"lastUpdated":"2019-04-09T12:04:02.380899+00:00","profile":["https://bluebutton.cms.gov/assets/ig/StructureDefinition-bluebutton-inpatient-claim"],"versionId":"MTU1NDgxMTQ0MjM4MDg5OTAwMA"},"organization":{"identifier":{"value":"fea46cf5-78cb-45ba-a53c-1889a8b8ee75"}},"patient":{"reference":"Patient/0b3ede79-49be-42b4-961e-a0e99e52b473"},"payment":{"amount":{"code":"USD","system":"urn:iso:std:iso:4217","value":0}},"provider":{"identifier":{"value":"9c1e389b-2076-44ab-917f-7e80069ab8d8"}},"resourceType":"ExplanationOfBenefit","status":"active","totalCost":{"code":"USD","system":"urn:iso:std:iso:4217","value":125},"type":{"coding":[{"code":"71","display":"Local carrier non-durable medical equipment, prosthetics, orthotics, and supplies (DMEPOS) claim","system":"https://bluebutton.cms.gov/resources/variables/nch_clm_type_cd"},{"code":"CARRIER","display":"EOB Type","system":"https://bluebutton.cms.gov/resources/codesystem/eob-type"},{"code":"professional","display":"Claim Type","system":"http://hl7.org/fhir/ex-claimtype"},{"code":"O","display":"Part B physician/supplier claim record (processed by local carriers; can include DMEPOS services)","system":"https://bluebutton.cms.gov/resources/variables/nch_near_line_rec_ident_cd"}]}}},{"resource":{"billablePeriod":{"end":"2001-02-15T12:16:28-05:00","start":"2000-02-15T12:16:28-05:00"},"careTeam":[{"provider":{"identifier":{"system":"http://hl7.org/fhir/sid/us-npi","value":"99999999"}},"role":{"coding":[{"code":"primary","display":"Primary Care Practitioner","system":"http://hl7.org/fhir/claimcareteamrole"}]},"sequence":1}],"claim":{"reference":"Claim/56e317bb-ddcb-4874-af77-ef2264d76b87"},"contained":[{"id":"1","intent":"order","recipient":[{"identifier":{"system":"http://hl7.org/fhir/sid/us-npi","value":"99999999"}}],"requester":{"agent":{"identifier":{"system":"http://hl7.org/fhir/sid/us-npi","value":"99999999"}}},"resourceType":"ReferralRequest","status":"completed","subject":{"reference":"Patient/0b3ede79-49be-42b4-961e-a0e99e52b473"}},{"id":"coverage","resourceType":"Coverage","type":{"text":"medicare"}}],"created":"2000-02-15T12:16:28-05:00","id":"b8bb1b94-8d74-474c-a20a-a6360667407c","identifier":[{"system":"https://bluebutton.cms.gov/resources/variables/clm_id","value":"56e317bb-ddcb-4874-af77-ef2264d76b87"},{"system":"https://bluebutton.cms.gov/resources/identifier/claim-group","value":"99999999999"}],"insurance":{"coverage":{"reference":"#coverage"}},"item":[{"category":{"coding":[{"code":"1","display":"Medical care","system":"https://bluebutton.cms.gov/resources/variables/line_cms_type_srvc_cd"}]},"encounter":[{"reference":"Encounter/77e27dcf-d706-4596-9db7-628747830ef0"}],"locationCodeableConcept":{"coding":[{"code":"21","display":"Inpatient Hospital","system":"https://bluebutton.cms.gov/resources/variables/line_place_of_srvc_cd"}]},"sequence":1,"servicedPeriod":{"end":"2000-02-15T12:16:28-05:00","start":"2000-02-15T12:01:28-05:00"}},{"adjudication":[{"amount":{"code":"USD","system":"urn:iso:std:iso:4217","value":28.104000000000003},"category":{"coding":[{"code":"https://bluebutton.cms.gov/resources/variables/line_coinsrnc_amt","display":"Line Beneficiary Coinsurance Amount","system":"https://bluebutton.cms.gov/resources/codesystem/adjudication"}]}},{"amount":{"code":"USD","system":"urn:iso:std:iso:4217","value":112.41600000000001},"category":{"coding":[{"code":"https://bluebutton.cms.gov/resources/variables/line_prvdr_pmt_amt","display":"Line Provider Payment Amount","system":"https://bluebutton.cms.gov/resources/codesystem/adjudication"}]}},{"amount":{"code":"USD","system":"urn:iso:std:iso:4217","value":140.52},"category":{"coding":[{"code":"https://bluebutton.cms.gov/resources/variables/line_sbmtd_chrg_amt","display":"Line Submitted Charge Amount","system":"https://bluebutton.cms.gov/resources/codesystem/adjudication"}]}},{"amount":{"code":"USD","system":"urn:iso:std:iso:4217","value":140.52},"category":{"coding":[{"code":"https://bluebutton.cms.gov/resources/variables/line_alowd_chrg_amt","display":"Line Allowed Charge Amount","system":"https://bluebutton.cms.gov/resources/codesystem/adjudication"}]}},{"amount":{"code":"USD","system":"urn:iso:std:iso:4217","value":0},"category":{"coding":[{"code":"https://bluebutton.cms.gov/resources/variables/line_bene_ptb_ddctbl_amt","display":"Line Beneficiary Part B Deductible Amount","system":"https://bluebutton.cms.gov/resources/codesystem/adjudication"}]}},{"category":{"coding":[{"code":"https://bluebutton.cms.gov/resources/variables/line_prcsg_ind_cd","display":"Line Processing Indicator Code","system":"https://bluebutton.cms.gov/resources/codesystem/adjudication"}]},"reason":{"coding":[{"code":"A","display":"Allowed","system":"https://bluebutton.cms.gov/resources/variables/line_prcsg_ind_cd"}]}}],"category":{"coding":[{"code":"1","display":"Medical care","system":"https://bluebutton.cms.gov/resources/variables/line_cms_type_srvc_cd"}]},"informationLinkId":[1],"locationCodeableConcept":{"coding":[{"code":"21","display":"Inpatient Hospital","system":"https://bluebutton.cms.gov/resources/variables/line_place_of_srvc_cd"}]},"net":{"code":"USD","system":"urn:iso:std:iso:4217","value":140.52},"sequence":2,"servicedPeriod":{"end":"2000-02-15T12:16:28-05:00","start":"2000-02-15T12:01:28-05:00"}}],"meta":{"lastUpdated":"2019-04-09T12:04:03.452529+00:00","versionId":"MTU1NDgxMTQ0MzQ1MjUyOTAwMA"},"organization":{"identifier":{"value":"fea46cf5-78cb-45ba-a53c-1889a8b8ee75"}},"patient":{"reference":"Patient/0b3ede79-49be-42b4-961e-a0e99e52b473"},"payment":{"amount":{"code":"USD","system":"urn:iso:std:iso:4217","value":112.41600000000001}},"provider":{"identifier":{"value":"9c1e389b-2076-44ab-917f-7e80069ab8d8"}},"referral":{"reference":"#1"},"resourceType":"ExplanationOfBenefit","status":"active","totalCost":{"code":"USD","system":"urn:iso:std:iso:4217","value":265.52},"type":{"coding":[{"code":"71","display":"Local carrier non-durable medical equipment, prosthetics, orthotics, and supplies (DMEPOS) claim","system":"https://bluebutton.cms.gov/resources/variables/nch_clm_type_cd"},{"code":"CARRIER","display":"EOB Type","system":"https://bluebutton.cms.gov/resources/codesystem/eob-type"},{"code":"professional","display":"Claim Type","system":"http://hl7.org/fhir/ex-claimtype"},{"code":"O","display":"Part B physician/supplier claim record (processed by local carriers; can include DMEPOS services)","system":"https://bluebutton.cms.gov/resources/variables/nch_near_line_rec_ident_cd"}]}}},{"resource":{"billablePeriod":{"end":"1999-02-03T12:31:28-05:00","start":"1998-02-03T12:31:28-05:00"},"careTeam":[{"provider":{"identifier":{"system":"http://hl7.org/fhir/sid/us-npi","value":"99999999"}},"role":{"coding":[{"code":"primary","display":"Primary Care Practitioner","system":"http://hl7.org/fhir/claimcareteamrole"}]},"sequence":1}],"claim":{"reference":"Claim/0d40fc8b-5ae9-4f3c-8a9a-b16ccab1db43"},"contained":[{"id":"1","intent":"order","recipient":[{"identifier":{"system":"http://hl7.org/fhir/sid/us-npi","value":"99999999"}}],"requester":{"agent":{"identifier":{"system":"http://hl7.org/fhir/sid/us-npi","value":"99999999"}}},"resourceType":"ReferralRequest","status":"completed","subject":{"reference":"Patient/0b3ede79-49be-42b4-961e-a0e99e52b473"}},{"id":"coverage","resourceType":"Coverage","type":{"text":"medicare"}}],"created":"1998-02-03T12:31:28-05:00","id":"bbc252d6-cd76-4abd-828a-b592e63f1e69","identifier":[{"system":"https://bluebutton.cms.gov/resources/variables/clm_id","value":"0d40fc8b-5ae9-4f3c-8a9a-b16ccab1db43"},{"system":"https://bluebutton.cms.gov/resources/identifier/claim-group","value":"99999999999"}],"insurance":{"coverage":{"reference":"#coverage"}},"item":[{"category":{"coding":[{"code":"1","display":"Medical care","system":"https://bluebutton.cms.gov/resources/variables/line_cms_type_srvc_cd"}]},"encounter":[{"reference":"Encounter/bc5202fe-0320-418f-8829-0f345b2b8c1c"}],"locationCodeableConcept":{"coding":[{"code":"21","display":"Inpatient Hospital","system":"https://bluebutton.cms.gov/resources/variables/line_place_of_srvc_cd"}]},"sequence":1,"servicedPeriod":{"end":"1998-02-03T12:31:28-05:00","start":"1998-02-03T12:01:28-05:00"}},{"adjudication":[{"amount":{"code":"USD","system":"urn:iso:std:iso:4217","value":28.104000000000003},"category":{"coding":[{"code":"https://bluebutton.cms.gov/resources/variables/line_coinsrnc_amt","display":"Line Beneficiary Coinsurance Amount","system":"https://bluebutton.cms.gov/resources/codesystem/adjudication"}]}},{"amount":{"code":"USD","system":"urn:iso:std:iso:4217","value":112.41600000000001},"category":{"coding":[{"code":"https://bluebutton.cms.gov/resources/variables/line_prvdr_pmt_amt","display":"Line Provider Payment Amount","system":"https://bluebutton.cms.gov/resources/codesystem/adjudication"}]}},{"amount":{"code":"USD","system":"urn:iso:std:iso:4217","value":140.52},"category":{"coding":[{"code":"https://bluebutton.cms.gov/resources/variables/line_sbmtd_chrg_amt","display":"Line Submitted Charge Amount","system":"https://bluebutton.cms.gov/resources/codesystem/adjudication"}]}},{"amount":{"code":"USD","system":"urn:iso:std:iso:4217","value":140.52},"category":{"coding":[{"code":"https://bluebutton.cms.gov/resources/variables/line_alowd_chrg_amt","display":"Line Allowed Charge Amount","system":"https://bluebutton.cms.gov/resources/codesystem/adjudication"}]}},{"amount":{"code":"USD","system":"urn:iso:std:iso:4217","value":0},"category":{"coding":[{"code":"https://bluebutton.cms.gov/resources/variables/line_bene_ptb_ddctbl_amt","display":"Line Beneficiary Part B Deductible Amount","system":"https://bluebutton.cms.gov/resources/codesystem/adjudication"}]}},{"category":{"coding":[{"code":"https://bluebutton.cms.gov/resources/variables/line_prcsg_ind_cd","display":"Line Processing Indicator Code","system":"https://bluebutton.cms.gov/resources/codesystem/adjudication"}]},"reason":{"coding":[{"code":"A","display":"Allowed","system":"https://bluebutton.cms.gov/resources/variables/line_prcsg_ind_cd"}]}}],"category":{"coding":[{"code":"1","display":"Medical care","system":"https://bluebutton.cms.gov/resources/variables/line_cms_type_srvc_cd"}]},"informationLinkId":[1],"locationCodeableConcept":{"coding":[{"code":"21","display":"Inpatient Hospital","system":"https://bluebutton.cms.gov/resources/variables/line_place_of_srvc_cd"}]},"net":{"code":"USD","system":"urn:iso:std:iso:4217","value":140.52},"sequence":2,"servicedPeriod":{"end":"1998-02-03T12:31:28-05:00","start":"1998-02-03T12:01:28-05:00"}},{"adjudication":[{"amount":{"code":"USD","system":"urn:iso:std:iso:4217","value":162.10000000000002},"category":{"coding":[{"code":"https://bluebutton.cms.gov/resources/variables/line_coinsrnc_amt","display":"Line Beneficiary Coinsurance Amount","system":"https://bluebutton.cms.gov/resources/codesystem/adjudication"}]}},{"amount":{"code":"USD","system":"urn:iso:std:iso:4217","value":648.4000000000001},"category":{"coding":[{"code":"https://bluebutton.cms.gov/resources/variables/line_prvdr_pmt_amt","display":"Line Provider Payment Amount","system":"https://bluebutton.cms.gov/resources/codesystem/adjudication"}]}},{"amount":{"code":"USD","system":"urn:iso:std:iso:4217","value":810.5},"category":{"coding":[{"code":"https://bluebutton.cms.gov/resources/variables/line_sbmtd_chrg_amt","display":"Line Submitted Charge Amount","system":"https://bluebutton.cms.gov/resources/codesystem/adjudication"}]}},{"amount":{"code":"USD","system":"urn:iso:std:iso:4217","value":810.5},"category":{"coding":[{"code":"https://bluebutton.cms.gov/resources/variables/line_alowd_chrg_amt","display":"Line Allowed Charge Amount","system":"https://bluebutton.cms.gov/resources/codesystem/adjudication"}]}},{"amount":{"code":"USD","system":"urn:iso:std:iso:4217","value":0},"category":{"coding":[{"code":"https://bluebutton.cms.gov/resources/variables/line_bene_ptb_ddctbl_amt","display":"Line Beneficiary Part B Deductible Amount","system":"https://bluebutton.cms.gov/resources/codesystem/adjudication"}]}},{"category":{"coding":[{"code":"https://bluebutton.cms.gov/resources/variables/line_prcsg_ind_cd","display":"Line Processing Indicator Code","system":"https://bluebutton.cms.gov/resources/codesystem/adjudication"}]},"reason":{"coding":[{"code":"A","display":"Allowed","system":"https://bluebutton.cms.gov/resources/variables/line_prcsg_ind_cd"}]}}],"category":{"coding":[{"code":"1","display":"Medical care","system":"https://bluebutton.cms.gov/resources/variables/line_cms_type_srvc_cd"}]},"locationCodeableConcept":{"coding":[{"code":"21","display":"Inpatient Hospital","system":"https://bluebutton.cms.gov/resources/variables/line_place_of_srvc_cd"}]},"net":{"code":"USD","system":"urn:iso:std:iso:4217","value":810.5},"sequence":3,"service":{"coding":[{"code":"428191000124101","system":"http://snomed.info/sct","version":"v1"}]},"servicedPeriod":{"end":"1998-02-03T12:31:28-05:00","start":"1998-02-03T12:01:28-05:00"}}],"meta":{"lastUpdated":"2019-04-09T12:04:02.414598+00:00","versionId":"MTU1NDgxMTQ0MjQxNDU5ODAwMA"},"organization":{"identifier":{"value":"fea46cf5-78cb-45ba-a53c-1889a8b8ee75"}},"patient":{"reference":"Patient/0b3ede79-49be-42b4-961e-a0e99e52b473"},"payment":{"amount":{"code":"USD","system":"urn:iso:std:iso:4217","value":760.8160000000001}},"provider":{"identifier":{"value":"9c1e389b-2076-44ab-917f-7e80069ab8d8"}},"referral":{"reference":"#1"},"resourceType":"ExplanationOfBenefit","status":"active","totalCost":{"code":"USD","system":"urn:iso:std:iso:4217","value":1076.02},"type":{"coding":[{"code":"71","display":"Local carrier non-durable medical equipment, prosthetics, orthotics, and supplies (DMEPOS) claim","system":"https://bluebutton.cms.gov/resources/variables/nch_clm_type_cd"},{"code":"CARRIER","display":"EOB Type","system":"https://bluebutton.cms.gov/resources/codesystem/eob-type"},{"code":"professional","display":"Claim Type","system":"http://hl7.org/fhir/ex-claimtype"},{"code":"O","display":"Part B physician/supplier claim record (processed by local carriers; can include DMEPOS services)","system":"https://bluebutton.cms.gov/resources/variables/nch_near_line_rec_ident_cd"}]}}},{"resource":{"billablePeriod":{"end":"1926-11-19T12:16:28-05:00","extension":[{"url":"https://bluebutton.cms.gov/assets/ig/StructureDefinition-bluebutton-inpatient-claim-query-cd-extension","valueCoding":{"code":"3","display":"Final Bill","system":"https://bluebutton.cms.gov/assets/ig/ValueSet-claim-query-cd"}}],"start":"1925-11-19T12:16:28-05:00"},"careTeam":[{"provider":{"identifier":{"system":"http://hl7.org/fhir/sid/us-npi","value":"99999999"}},"role":{"coding":[{"code":"primary","display":"Primary Care Practitioner","system":"http://hl7.org/fhir/claimcareteamrole"}]},"sequence":1}],"contained":[{"id":"coverage","resourceType":"Coverage","type":{"text":"private"}}],"diagnosis":[{"diagnosisReference":{"reference":"Condition/2fa3c99d-f2da-44a6-a22a-de63605bce59"},"extension":[{"url":"https://bluebutton.cms.gov/assets/ig/StructureDefinition-bluebutton-inpatient-clm-poa-ind-sw1-extension","valueCoding":{"code":"Y","display":"Diagnosis present at time of admission","system":"https://bluebutton.cms.gov/assets/ig/CodeSystem-clm-poa-ind-sw1"}}],"sequence":1,"type":[{"coding":[{"code":"principal","system":"https://bluebutton.cms.gov/resources/codesystem/diagnosis-type"}]}]}],"extension":[{"url":"https://bluebutton.cms.gov/assets/ig/StructureDefinition-bluebutton-inpatient-ime-op-clm-val-amt-extension","valueMoney":{"code":"USD","system":"urn:iso:std:iso:4217","value":400}},{"url":"https://bluebutton.cms.gov/assets/ig/StructureDefinition-bluebutton-inpatient-dsh-op-clm-val-amt-extension","valueMoney":{"code":"USD","system":"urn:iso:std:iso:4217","value":0}},{"url":"https://bluebutton.cms.gov/assets/ig/StructureDefinition-bluebutton-inpatient-clm-pass-thru-per-diem-amt-extension","valueMoney":{"code":"USD","system":"urn:iso:std:iso:4217","value":0}},{"url":"https://bluebutton.cms.gov/assets/ig/StructureDefinition-bluebutton-inpatient-nch-profnl-cmpnt-chrg-amt-extension","valueMoney":{"code":"USD","system":"urn:iso:std:iso:4217","value":0}},{"url":"https://bluebutton.cms.gov/assets/ig/StructureDefinition-bluebutton-inpatient-clm-tot-pps-cptl-amt-extension","valueMoney":{"code":"USD","system":"urn:iso:std:iso:4217","value":0}},{"url":"https://bluebutton.cms.gov/assets/ig/StructureDefinition-bluebutton-inpatient-nch-bene-ip-ddctbl-amt-extension","valueMoney":{"code":"USD","system":"urn:iso:std:iso:4217","value":0}},{"url":"https://bluebutton.cms.gov/assets/ig/StructureDefinition-bluebutton-inpatient-nch-bene-pta-coinsrnc-lblty-amt-extension","valueMoney":{"code":"USD","system":"urn:iso:std:iso:4217","value":0}},{"url":"https://bluebutton.cms.gov/assets/ig/StructureDefinition-bluebutton-inpatient-nch-ip-ncvrd-chrg-amt-extension","valueMoney":{"code":"USD","system":"urn:iso:std:iso:4217","value":0}},{"url":"https://bluebutton.cms.gov/assets/ig/StructureDefinition-bluebutton-inpatient-nch-ip-tot-ddctn-amt-extension","valueMoney":{"code":"USD","system":"urn:iso:std:iso:4217","value":0}},{"url":"https://bluebutton.cms.gov/assets/ig/StructureDefinition-bluebutton-inpatient-clm-pps-cptl-dsprprtnt-shr-amt-extension","valueMoney":{"code":"USD","system":"urn:iso:std:iso:4217","value":0}},{"url":"https://bluebutton.cms.gov/assets/ig/StructureDefinition-bluebutton-inpatient-clm-pps-cptl-excptn-amt-extension","valueMoney":{"code":"USD","system":"urn:iso:std:iso:4217","value":0}},{"url":"https://bluebutton.cms.gov/assets/ig/StructureDefinition-bluebutton-inpatient-clm-pps-cptl-fsp-amt-extension","valueMoney":{"code":"USD","system":"urn:iso:std:iso:4217","value":0}},{"url":"https://bluebutton.cms.gov/assets/ig/StructureDefinition-bluebutton-inpatient-clm-pps-cptl-ime-amt-extension","valueMoney":{"code":"USD","system":"urn:iso:std:iso:4217","value":400}},{"url":"https://bluebutton.cms.gov/assets/ig/StructureDefinition-bluebutton-inpatient-clm-pps-cptl-outlier-amt-extension","valueMoney":{"code":"USD","system":"urn:iso:std:iso:4217","value":0}},{"url":"https://bluebutton.cms.gov/assets/ig/StructureDefinition-bluebutton-inpatient-clm-pps-old-cptl-hld-hrmls-amt-extension","valueMoney":{"code":"USD","system":"urn:iso:std:iso:4217","value":0}},{"url":"https://bluebutton.cms.gov/assets/ig/StructureDefinition-bluebutton-inpatient-nch-drg-outlier-aprvd-pmt-amt-extension","valueMoney":{"code":"USD","system":"urn:iso:std:iso:4217","value":0}},{"url":"https://bluebutton.cms.gov/assets/ig/StructureDefinition-bluebutton-inpatient-nch-bene-blood-ddctbl-lblty-am-extension","valueMoney":{"code":"USD","system":"urn:iso:std:iso:4217","value":0}},{"url":"https://bluebutton.cms.gov/assets/ig/StructureDefinition-bluebutton-inpatient-clm-mdcr-non-pmt-rsn-cd-extension","valueCoding":{"code":"N","display":"All other reasons for non-payment","system":"https://bluebutton.cms.gov/assets/ig/CodeSystem-clm-mdcr-non-pmt-rsn-cd"}},{"url":"https://bluebutton.cms.gov/assets/ig/StructureDefinition-bluebutton-inpatient-prpayamt-extension","valueMoney":{"code":"USD","system":"urn:iso:std:iso:4217","value":0}},{"url":"https://bluebutton.cms.gov/assets/ig/StructureDefinition-bluebutton-inpatient-fi-num-extension","valueIdentifier":{"system":"https://bluebutton.cms.gov/assets/ig/CodeSystem-fi-num","value":"002000"}}],"id":"be0e2f27-a434-470f-9170-15e507491a21","identifier":[{"system":"https://bluebutton.cms.gov/resources/variables/clm_id","value":"0e39b999-4daa-48c2-9b27-4b3b3a10b019"},{"system":"https://bluebutton.cms.gov/resources/identifier/claim-group","value":"99999999999"}],"insurance":{"coverage":{"reference":"#coverage"}},"item":[{"extension":[{"url":"https://bluebutton.cms.gov/assets/ig/StructureDefinition-bluebutton-inpatient-rev-cntr-ndc-qty-extension","valueQuantity":{"value":0}}],"locationCodeableConcept":{"coding":[{"code":"21","display":"Inpatient Hospital","system":"https://bluebutton.cms.gov/resources/variables/line_place_of_srvc_cd"}]},"sequence":1},{"extension":[{"url":"https://bluebutton.cms.gov/assets/ig/StructureDefinition-bluebutton-inpatient-rev-cntr-ndc-qty-extension","valueQuantity":{"value":0}}],"locationCodeableConcept":{"coding":[{"code":"21","display":"Inpatient Hospital","system":"https://bluebutton.cms.gov/resources/variables/line_place_of_srvc_cd"}]},"sequence":2}],"meta":{"lastUpdated":"2019-04-09T12:04:02.380891+00:00","profile":["https://bluebutton.cms.gov/assets/ig/StructureDefinition-bluebutton-inpatient-claim"],"versionId":"MTU1NDgxMTQ0MjM4MDg5MTAwMA"},"organization":{"identifier":{"value":"fea46cf5-78cb-45ba-a53c-1889a8b8ee75"}},"patient":{"reference":"Patient/0b3ede79-49be-42b4-961e-a0e99e52b473"},"payment":{"amount":{"code":"USD","system":"urn:iso:std:iso:4217","value":0}},"provider":{"identifier":{"value":"9c1e389b-2076-44ab-917f-7e80069ab8d8"}},"resourceType":"ExplanationOfBenefit","status":"active","totalCost":{"code":"USD","system":"urn:iso:std:iso:4217","value":125},"type":{"coding":[{"code":"71","display":"Local carrier non-durable medical equipment, prosthetics, orthotics, and supplies (DMEPOS) claim","system":"https://bluebutton.cms.gov/resources/variables/nch_clm_type_cd"},{"code":"CARRIER","display":"EOB Type","system":"https://bluebutton.cms.gov/resources/codesystem/eob-type"},{"code":"professional","display":"Claim Type","system":"http://hl7.org/fhir/ex-claimtype"},{"code":"O","display":"Part B physician/supplier claim record (processed by local carriers; can include DMEPOS services)","system":"https://bluebutton.cms.gov/resources/variables/nch_near_line_rec_ident_cd"}]}}},{"resource":{"billablePeriod":{"end":"1996-06-20T13:31:28-04:00","start":"1995-06-20T13:31:28-04:00"},"careTeam":[{"provider":{"identifier":{"system":"http://hl7.org/fhir/sid/us-npi","value":"99999999"}},"role":{"coding":[{"code":"primary","display":"Primary Care Practitioner","system":"http://hl7.org/fhir/claimcareteamrole"}]},"sequence":1}],"claim":{"reference":"Claim/a68f5142-1538-4be2-ae38-74e2724d4043"},"contained":[{"id":"1","intent":"order","recipient":[{"identifier":{"system":"http://hl7.org/fhir/sid/us-npi","value":"99999999"}}],"requester":{"agent":{"identifier":{"system":"http://hl7.org/fhir/sid/us-npi","value":"99999999"}}},"resourceType":"ReferralRequest","status":"completed","subject":{"reference":"Patient/0b3ede79-49be-42b4-961e-a0e99e52b473"}},{"id":"coverage","resourceType":"Coverage","type":{"text":"medicare"}}],"created":"1995-06-20T13:31:28-04:00","id":"db9bba55-af8f-4bec-9cea-c1e7a9cfc5ea","identifier":[{"system":"https://bluebutton.cms.gov/resources/variables/clm_id","value":"a68f5142-1538-4be2-ae38-74e2724d4043"},{"system":"https://bluebutton.cms.gov/resources/identifier/claim-group","value":"99999999999"}],"insurance":{"coverage":{"reference":"#coverage"}},"item":[{"category":{"coding":[{"code":"1","display":"Medical care","system":"https://bluebutton.cms.gov/resources/variables/line_cms_type_srvc_cd"}]},"encounter":[{"reference":"Encounter/dac7aeb3-11df-4464-b6c9-049e0ca35f8c"}],"locationCodeableConcept":{"coding":[{"code":"21","display":"Inpatient Hospital","system":"https://bluebutton.cms.gov/resources/variables/line_place_of_srvc_cd"}]},"sequence":1,"servicedPeriod":{"end":"1995-06-20T13:31:28-04:00","start":"1995-06-20T13:01:28-04:00"}},{"adjudication":[{"amount":{"code":"USD","system":"urn:iso:std:iso:4217","value":28.104000000000003},"category":{"coding":[{"code":"https://bluebutton.cms.gov/resources/variables/line_coinsrnc_amt","display":"Line Beneficiary Coinsurance Amount","system":"https://bluebutton.cms.gov/resources/codesystem/adjudication"}]}},{"amount":{"code":"USD","system":"urn:iso:std:iso:4217","value":112.41600000000001},"category":{"coding":[{"code":"https://bluebutton.cms.gov/resources/variables/line_prvdr_pmt_amt","display":"Line Provider Payment Amount","system":"https://bluebutton.cms.gov/resources/codesystem/adjudication"}]}},{"amount":{"code":"USD","system":"urn:iso:std:iso:4217","value":140.52},"category":{"coding":[{"code":"https://bluebutton.cms.gov/resources/variables/line_sbmtd_chrg_amt","display":"Line Submitted Charge Amount","system":"https://bluebutton.cms.gov/resources/codesystem/adjudication"}]}},{"amount":{"code":"USD","system":"urn:iso:std:iso:4217","value":140.52},"category":{"coding":[{"code":"https://bluebutton.cms.gov/resources/variables/line_alowd_chrg_amt","display":"Line Allowed Charge Amount","system":"https://bluebutton.cms.gov/resources/codesystem/adjudication"}]}},{"amount":{"code":"USD","system":"urn:iso:std:iso:4217","value":0},"category":{"coding":[{"code":"https://bluebutton.cms.gov/resources/variables/line_bene_ptb_ddctbl_amt","display":"Line Beneficiary Part B Deductible Amount","system":"https://bluebutton.cms.gov/resources/codesystem/adjudication"}]}},{"category":{"coding":[{"code":"https://bluebutton.cms.gov/resources/variables/line_prcsg_ind_cd","display":"Line Processing Indicator Code","system":"https://bluebutton.cms.gov/resources/codesystem/adjudication"}]},"reason":{"coding":[{"code":"A","display":"Allowed","system":"https://bluebutton.cms.gov/resources/variables/line_prcsg_ind_cd"}]}}],"category":{"coding":[{"code":"1","display":"Medical care","system":"https://bluebutton.cms.gov/resources/variables/line_cms_type_srvc_cd"}]},"informationLinkId":[1],"locationCodeableConcept":{"coding":[{"code":"21","display":"Inpatient Hospital","system":"https://bluebutton.cms.gov/resources/variables/line_place_of_srvc_cd"}]},"net":{"code":"USD","system":"urn:iso:std:iso:4217","value":140.52},"sequence":2,"servicedPeriod":{"end":"1995-06-20T13:31:28-04:00","start":"1995-06-20T13:01:28-04:00"}},{"adjudication":[{"amount":{"code":"USD","system":"urn:iso:std:iso:4217","value":28.104000000000003},"category":{"coding":[{"code":"https://bluebutton.cms.gov/resources/variables/line_coinsrnc_amt","display":"Line Beneficiary Coinsurance Amount","system":"https://bluebutton.cms.gov/resources/codesystem/adjudication"}]}},{"amount":{"code":"USD","system":"urn:iso:std:iso:4217","value":112.41600000000001},"category":{"coding":[{"code":"https://bluebutton.cms.gov/resources/variables/line_prvdr_pmt_amt","display":"Line Provider Payment Amount","system":"https://bluebutton.cms.gov/resources/codesystem/adjudication"}]}},{"amount":{"code":"USD","system":"urn:iso:std:iso:4217","value":140.52},"category":{"coding":[{"code":"https://bluebutton.cms.gov/resources/variables/line_sbmtd_chrg_amt","display":"Line Submitted Charge Amount","system":"https://bluebutton.cms.gov/resources/codesystem/adjudication"}]}},{"amount":{"code":"USD","system":"urn:iso:std:iso:4217","value":140.52},"category":{"coding":[{"code":"https://bluebutton.cms.gov/resources/variables/line_alowd_chrg_amt","display":"Line Allowed Charge Amount","system":"https://bluebutton.cms.gov/resources/codesystem/adjudication"}]}},{"amount":{"code":"USD","system":"urn:iso:std:iso:4217","value":0},"category":{"coding":[{"code":"https://bluebutton.cms.gov/resources/variables/line_bene_ptb_ddctbl_amt","display":"Line Beneficiary Part B Deductible Amount","system":"https://bluebutton.cms.gov/resources/codesystem/adjudication"}]}},{"category":{"coding":[{"code":"https://bluebutton.cms.gov/resources/variables/line_prcsg_ind_cd","display":"Line Processing Indicator Code","system":"https://bluebutton.cms.gov/resources/codesystem/adjudication"}]},"reason":{"coding":[{"code":"A","display":"Allowed","system":"https://bluebutton.cms.gov/resources/variables/line_prcsg_ind_cd"}]}}],"category":{"coding":[{"code":"1","display":"Medical care","system":"https://bluebutton.cms.gov/resources/variables/line_cms_type_srvc_cd"}]},"informationLinkId":[2],"locationCodeableConcept":{"coding":[{"code":"21","display":"Inpatient Hospital","system":"https://bluebutton.cms.gov/resources/variables/line_place_of_srvc_cd"}]},"net":{"code":"USD","system":"urn:iso:std:iso:4217","value":140.52},"sequence":3,"servicedPeriod":{"end":"1995-06-20T13:31:28-04:00","start":"1995-06-20T13:01:28-04:00"}},{"adjudication":[{"amount":{"code":"USD","system":"urn:iso:std:iso:4217","value":122.106},"category":{"coding":[{"code":"https://bluebutton.cms.gov/resources/variables/line_coinsrnc_amt","display":"Line Beneficiary Coinsurance Amount","system":"https://bluebutton.cms.gov/resources/codesystem/adjudication"}]}},{"amount":{"code":"USD","system":"urn:iso:std:iso:4217","value":488.424},"category":{"coding":[{"code":"https://bluebutton.cms.gov/resources/variables/line_prvdr_pmt_amt","display":"Line Provider Payment Amount","system":"https://bluebutton.cms.gov/resources/codesystem/adjudication"}]}},{"amount":{"code":"USD","system":"urn:iso:std:iso:4217","value":610.53},"category":{"coding":[{"code":"https://bluebutton.cms.gov/resources/variables/line_sbmtd_chrg_amt","display":"Line Submitted Charge Amount","system":"https://bluebutton.cms.gov/resources/codesystem/adjudication"}]}},{"amount":{"code":"USD","system":"urn:iso:std:iso:4217","value":610.53},"category":{"coding":[{"code":"https://bluebutton.cms.gov/resources/variables/line_alowd_chrg_amt","display":"Line Allowed Charge Amount","system":"https://bluebutton.cms.gov/resources/codesystem/adjudication"}]}},{"amount":{"code":"USD","system":"urn:iso:std:iso:4217","value":0},"category":{"coding":[{"code":"https://bluebutton.cms.gov/resources/variables/line_bene_ptb_ddctbl_amt","display":"Line Beneficiary Part B Deductible Amount","system":"https://bluebutton.cms.gov/resources/codesystem/adjudication"}]}},{"category":{"coding":[{"code":"https://bluebutton.cms.gov/resources/variables/line_prcsg_ind_cd","display":"Line Processing Indicator Code","system":"https://bluebutton.cms.gov/resources/codesystem/adjudication"}]},"reason":{"coding":[{"code":"A","display":"Allowed","system":"https://bluebutton.cms.gov/resources/variables/line_prcsg_ind_cd"}]}}],"category":{"coding":[{"code":"1","display":"Medical care","system":"https://bluebutton.cms.gov/resources/variables/line_cms_type_srvc_cd"}]},"locationCodeableConcept":{"coding":[{"code":"21","display":"Inpatient Hospital","system":"https://bluebutton.cms.gov/resources/variables/line_place_of_srvc_cd"}]},"net":{"code":"USD","system":"urn:iso:std:iso:4217","value":610.53},"sequence":4,"service":{"coding":[{"code":"428191000124101","system":"http://snomed.info/sct","version":"v1"}]},"servicedPeriod":{"end":"1995-06-20T13:31:28-04:00","start":"1995-06-20T13:01:28-04:00"}}],"meta":{"lastUpdated":"2019-04-09T12:04:02.374645+00:00","versionId":"MTU1NDgxMTQ0MjM3NDY0NTAwMA"},"organization":{"identifier":{"value":"fea46cf5-78cb-45ba-a53c-1889a8b8ee75"}},"patient":{"reference":"Patient/0b3ede79-49be-42b4-961e-a0e99e52b473"},"payment":{"amount":{"code":"USD","system":"urn:iso:std:iso:4217","value":713.256}},"provider":{"identifier":{"value":"9c1e389b-2076-44ab-917f-7e80069ab8d8"}},"referral":{"reference":"#1"},"resourceType":"ExplanationOfBenefit","status":"active","totalCost":{"code":"USD","system":"urn:iso:std:iso:4217","value":1016.57},"type":{"coding":[{"code":"71","display":"Local carrier non-durable medical equipment, prosthetics, orthotics, and supplies (DMEPOS) claim","system":"https://bluebutton.cms.gov/resources/variables/nch_clm_type_cd"},{"code":"CARRIER","display":"EOB Type","system":"https://bluebutton.cms.gov/resources/codesystem/eob-type"},{"code":"professional","display":"Claim Type","system":"http://hl7.org/fhir/ex-claimtype"},{"code":"O","display":"Part B physician/supplier claim record (processed by local carriers; can include DMEPOS services)","system":"https://bluebutton.cms.gov/resources/variables/nch_near_line_rec_ident_cd"}]}}},{"resource":{"billablePeriod":{"end":"1996-07-31T13:16:28-04:00","extension":[{"url":"https://bluebutton.cms.gov/assets/ig/StructureDefinition-bluebutton-inpatient-claim-query-cd-extension","valueCoding":{"code":"3","display":"Final Bill","system":"https://bluebutton.cms.gov/assets/ig/ValueSet-claim-query-cd"}}],"start":"1995-07-31T13:16:28-04:00"},"careTeam":[{"provider":{"identifier":{"system":"http://hl7.org/fhir/sid/us-npi","value":"99999999"}},"role":{"coding":[{"code":"primary","display":"Primary Care Practitioner","system":"http://hl7.org/fhir/claimcareteamrole"}]},"sequence":1}],"contained":[{"id":"coverage","resourceType":"Coverage","type":{"text":"medicare"}}],"diagnosis":[{"diagnosisReference":{"reference":"Condition/ded4d88f-c23a-460f-9dde-f422ea6fd570"},"extension":[{"url":"https://bluebutton.cms.gov/assets/ig/StructureDefinition-bluebutton-inpatient-clm-poa-ind-sw1-extension","valueCoding":{"code":"Y","display":"Diagnosis present at time of admission","system":"https://bluebutton.cms.gov/assets/ig/CodeSystem-clm-poa-ind-sw1"}}],"sequence":1,"type":[{"coding":[{"code":"principal","system":"https://bluebutton.cms.gov/resources/codesystem/diagnosis-type"}]}]}],"extension":[{"url":"https://bluebutton.cms.gov/assets/ig/StructureDefinition-bluebutton-inpatient-ime-op-clm-val-amt-extension","valueMoney":{"code":"USD","system":"urn:iso:std:iso:4217","value":400}},{"url":"https://bluebutton.cms.gov/assets/ig/StructureDefinition-bluebutton-inpatient-dsh-op-clm-val-amt-extension","valueMoney":{"code":"USD","system":"urn:iso:std:iso:4217","value":0}},{"url":"https://bluebutton.cms.gov/assets/ig/StructureDefinition-bluebutton-inpatient-clm-pass-thru-per-diem-amt-extension","valueMoney":{"code":"USD","system":"urn:iso:std:iso:4217","value":0}},{"url":"https://bluebutton.cms.gov/assets/ig/StructureDefinition-bluebutton-inpatient-nch-profnl-cmpnt-chrg-amt-extension","valueMoney":{"code":"USD","system":"urn:iso:std:iso:4217","value":0}},{"url":"https://bluebutton.cms.gov/assets/ig/StructureDefinition-bluebutton-inpatient-clm-tot-pps-cptl-amt-extension","valueMoney":{"code":"USD","system":"urn:iso:std:iso:4217","value":0}},{"url":"https://bluebutton.cms.gov/assets/ig/StructureDefinition-bluebutton-inpatient-nch-bene-ip-ddctbl-amt-extension","valueMoney":{"code":"USD","system":"urn:iso:std:iso:4217","value":0}},{"url":"https://bluebutton.cms.gov/assets/ig/StructureDefinition-bluebutton-inpatient-nch-bene-pta-coinsrnc-lblty-amt-extension","valueMoney":{"code":"USD","system":"urn:iso:std:iso:4217","value":0}},{"url":"https://bluebutton.cms.gov/assets/ig/StructureDefinition-bluebutton-inpatient-nch-ip-ncvrd-chrg-amt-extension","valueMoney":{"code":"USD","system":"urn:iso:std:iso:4217","value":0}},{"url":"https://bluebutton.cms.gov/assets/ig/StructureDefinition-bluebutton-inpatient-nch-ip-tot-ddctn-amt-extension","valueMoney":{"code":"USD","system":"urn:iso:std:iso:4217","value":0}},{"url":"https://bluebutton.cms.gov/assets/ig/StructureDefinition-bluebutton-inpatient-clm-pps-cptl-dsprprtnt-shr-amt-extension","valueMoney":{"code":"USD","system":"urn:iso:std:iso:4217","value":0}},{"url":"https://bluebutton.cms.gov/assets/ig/StructureDefinition-bluebutton-inpatient-clm-pps-cptl-excptn-amt-extension","valueMoney":{"code":"USD","system":"urn:iso:std:iso:4217","value":0}},{"url":"https://bluebutton.cms.gov/assets/ig/StructureDefinition-bluebutton-inpatient-clm-pps-cptl-fsp-amt-extension","valueMoney":{"code":"USD","system":"urn:iso:std:iso:4217","value":0}},{"url":"https://bluebutton.cms.gov/assets/ig/StructureDefinition-bluebutton-inpatient-clm-pps-cptl-ime-amt-extension","valueMoney":{"code":"USD","system":"urn:iso:std:iso:4217","value":400}},{"url":"https://bluebutton.cms.gov/assets/ig/StructureDefinition-bluebutton-inpatient-clm-pps-cptl-outlier-amt-extension","valueMoney":{"code":"USD","system":"urn:iso:std:iso:4217","value":0}},{"url":"https://bluebutton.cms.gov/assets/ig/StructureDefinition-bluebutton-inpatient-clm-pps-old-cptl-hld-hrmls-amt-extension","valueMoney":{"code":"USD","system":"urn:iso:std:iso:4217","value":0}},{"url":"https://bluebutton.cms.gov/assets/ig/StructureDefinition-bluebutton-inpatient-nch-drg-outlier-aprvd-pmt-amt-extension","valueMoney":{"code":"USD","system":"urn:iso:std:iso:4217","value":0}},{"url":"https://bluebutton.cms.gov/assets/ig/StructureDefinition-bluebutton-inpatient-nch-bene-blood-ddctbl-lblty-am-extension","valueMoney":{"code":"USD","system":"urn:iso:std:iso:4217","value":0}},{"url":"https://bluebutton.cms.gov/assets/ig/StructureDefinition-bluebutton-inpatient-clm-mdcr-non-pmt-rsn-cd-extension","valueCoding":{"code":"N","display":"All other reasons for non-payment","system":"https://bluebutton.cms.gov/assets/ig/CodeSystem-clm-mdcr-non-pmt-rsn-cd"}},{"url":"https://bluebutton.cms.gov/assets/ig/StructureDefinition-bluebutton-inpatient-prpayamt-extension","valueMoney":{"code":"USD","system":"urn:iso:std:iso:4217","value":0}},{"url":"https://bluebutton.cms.gov/assets/ig/StructureDefinition-bluebutton-inpatient-fi-num-extension","valueIdentifier":{"system":"https://bluebutton.cms.gov/assets/ig/CodeSystem-fi-num","value":"002000"}}],"id":"dfb1786b-6c60-4f54-bf1c-84742d7ff9d8","identifier":[{"system":"https://bluebutton.cms.gov/resources/variables/clm_id","value":"247be520-976f-4f2b-911d-45c0165038c7"},{"system":"https://bluebutton.cms.gov/resources/identifier/claim-group","value":"99999999999"}],"insurance":{"coverage":{"reference":"#coverage"}},"item":[{"extension":[{"url":"https://bluebutton.cms.gov/assets/ig/StructureDefinition-bluebutton-inpatient-rev-cntr-ndc-qty-extension","valueQuantity":{"value":0}}],"locationCodeableConcept":{"coding":[{"code":"21","display":"Inpatient Hospital","system":"https://bluebutton.cms.gov/resources/variables/line_place_of_srvc_cd"}]},"sequence":1},{"extension":[{"url":"https://bluebutton.cms.gov/assets/ig/StructureDefinition-bluebutton-inpatient-rev-cntr-ndc-qty-extension","valueQuantity":{"value":0}}],"locationCodeableConcept":{"coding":[{"code":"21","display":"Inpatient Hospital","system":"https://bluebutton.cms.gov/resources/variables/line_place_of_srvc_cd"}]},"sequence":2}],"meta":{"lastUpdated":"2019-04-09T12:04:02.376609+00:00","profile":["https://bluebutton.cms.gov/assets/ig/StructureDefinition-bluebutton-inpatient-claim"],"versionId":"MTU1NDgxMTQ0MjM3NjYwOTAwMA"},"organization":{"identifier":{"value":"fea46cf5-78cb-45ba-a53c-1889a8b8ee75"}},"patient":{"reference":"Patient/0b3ede79-49be-42b4-961e-a0e99e52b473"},"payment":{"amount":{"code":"USD","system":"urn:iso:std:iso:4217","value":0}},"provider":{"identifier":{"value":"9c1e389b-2076-44ab-917f-7e80069ab8d8"}},"resourceType":"ExplanationOfBenefit","status":"active","totalCost":{"code":"USD","system":"urn:iso:std:iso:4217","value":125},"type":{"coding":[{"code":"71","display":"Local carrier non-durable medical equipment, prosthetics, orthotics, and supplies (DMEPOS) claim","system":"https://bluebutton.cms.gov/resources/variables/nch_clm_type_cd"},{"code":"CARRIER","display":"EOB Type","system":"https://bluebutton.cms.gov/resources/codesystem/eob-type"},{"code":"professional","display":"Claim Type","system":"http://hl7.org/fhir/ex-claimtype"},{"code":"O","display":"Part B physician/supplier claim record (processed by local carriers; can include DMEPOS services)","system":"https://bluebutton.cms.gov/resources/variables/nch_near_line_rec_ident_cd"}]}}},{"resource":{"billablePeriod":{"end":"2002-04-07T13:16:28-04:00","extension":[{"url":"https://bluebutton.cms.gov/assets/ig/StructureDefinition-bluebutton-inpatient-claim-query-cd-extension","valueCoding":{"code":"3","display":"Final Bill","system":"https://bluebutton.cms.gov/assets/ig/ValueSet-claim-query-cd"}}],"start":"2001-04-07T13:16:28-04:00"},"careTeam":[{"provider":{"identifier":{"system":"http://hl7.org/fhir/sid/us-npi","value":"99999999"}},"role":{"coding":[{"code":"primary","display":"Primary Care Practitioner","system":"http://hl7.org/fhir/claimcareteamrole"}]},"sequence":1}],"contained":[{"id":"coverage","resourceType":"Coverage","type":{"text":"medicare"}}],"extension":[{"url":"https://bluebutton.cms.gov/assets/ig/StructureDefinition-bluebutton-inpatient-ime-op-clm-val-amt-extension","valueMoney":{"code":"USD","system":"urn:iso:std:iso:4217","value":400}},{"url":"https://bluebutton.cms.gov/assets/ig/StructureDefinition-bluebutton-inpatient-dsh-op-clm-val-amt-extension","valueMoney":{"code":"USD","system":"urn:iso:std:iso:4217","value":0}},{"url":"https://bluebutton.cms.gov/assets/ig/StructureDefinition-bluebutton-inpatient-clm-pass-thru-per-diem-amt-extension","valueMoney":{"code":"USD","system":"urn:iso:std:iso:4217","value":0}},{"url":"https://bluebutton.cms.gov/assets/ig/StructureDefinition-bluebutton-inpatient-nch-profnl-cmpnt-chrg-amt-extension","valueMoney":{"code":"USD","system":"urn:iso:std:iso:4217","value":0}},{"url":"https://bluebutton.cms.gov/assets/ig/StructureDefinition-bluebutton-inpatient-clm-tot-pps-cptl-amt-extension","valueMoney":{"code":"USD","system":"urn:iso:std:iso:4217","value":0}},{"url":"https://bluebutton.cms.gov/assets/ig/StructureDefinition-bluebutton-inpatient-nch-bene-ip-ddctbl-amt-extension","valueMoney":{"code":"USD","system":"urn:iso:std:iso:4217","value":0}},{"url":"https://bluebutton.cms.gov/assets/ig/StructureDefinition-bluebutton-inpatient-nch-bene-pta-coinsrnc-lblty-amt-extension","valueMoney":{"code":"USD","system":"urn:iso:std:iso:4217","value":0}},{"url":"https://bluebutton.cms.gov/assets/ig/StructureDefinition-bluebutton-inpatient-nch-ip-ncvrd-chrg-amt-extension","valueMoney":{"code":"USD","system":"urn:iso:std:iso:4217","value":0}},{"url":"https://bluebutton.cms.gov/assets/ig/StructureDefinition-bluebutton-inpatient-nch-ip-tot-ddctn-amt-extension","valueMoney":{"code":"USD","system":"urn:iso:std:iso:4217","value":0}},{"url":"https://bluebutton.cms.gov/assets/ig/StructureDefinition-bluebutton-inpatient-clm-pps-cptl-dsprprtnt-shr-amt-extension","valueMoney":{"code":"USD","system":"urn:iso:std:iso:4217","value":0}},{"url":"https://bluebutton.cms.gov/assets/ig/StructureDefinition-bluebutton-inpatient-clm-pps-cptl-excptn-amt-extension","valueMoney":{"code":"USD","system":"urn:iso:std:iso:4217","value":0}},{"url":"https://bluebutton.cms.gov/assets/ig/StructureDefinition-bluebutton-inpatient-clm-pps-cptl-fsp-amt-extension","valueMoney":{"code":"USD","system":"urn:iso:std:iso:4217","value":0}},{"url":"https://bluebutton.cms.gov/assets/ig/StructureDefinition-bluebutton-inpatient-clm-pps-cptl-ime-amt-extension","valueMoney":{"code":"USD","system":"urn:iso:std:iso:4217","value":400}},{"url":"https://bluebutton.cms.gov/assets/ig/StructureDefinition-bluebutton-inpatient-clm-pps-cptl-outlier-amt-extension","valueMoney":{"code":"USD","system":"urn:iso:std:iso:4217","value":0}},{"url":"https://bluebutton.cms.gov/assets/ig/StructureDefinition-bluebutton-inpatient-clm-pps-old-cptl-hld-hrmls-amt-extension","valueMoney":{"code":"USD","system":"urn:iso:std:iso:4217","value":0}},{"url":"https://bluebutton.cms.gov/assets/ig/StructureDefinition-bluebutton-inpatient-nch-drg-outlier-aprvd-pmt-amt-extension","valueMoney":{"code":"USD","system":"urn:iso:std:iso:4217","value":0}},{"url":"https://bluebutton.cms.gov/assets/ig/StructureDefinition-bluebutton-inpatient-nch-bene-blood-ddctbl-lblty-am-extension","valueMoney":{"code":"USD","system":"urn:iso:std:iso:4217","value":0}},{"url":"https://bluebutton.cms.gov/assets/ig/StructureDefinition-bluebutton-inpatient-clm-mdcr-non-pmt-rsn-cd-extension","valueCoding":{"code":"N","display":"All other reasons for non-payment","system":"https://bluebutton.cms.gov/assets/ig/CodeSystem-clm-mdcr-non-pmt-rsn-cd"}},{"url":"https://bluebutton.cms.gov/assets/ig/StructureDefinition-bluebutton-inpatient-prpayamt-extension","valueMoney":{"code":"USD","system":"urn:iso:std:iso:4217","value":0}},{"url":"https://bluebutton.cms.gov/assets/ig/StructureDefinition-bluebutton-inpatient-fi-num-extension","valueIdentifier":{"system":"https://bluebutton.cms.gov/assets/ig/CodeSystem-fi-num","value":"002000"}}],"id":"ebac8a8b-85b1-4612-ad93-baa6f84dd628","identifier":[{"system":"https://bluebutton.cms.gov/resources/variables/clm_id","value":"d7182772-4597-4543-a762-0f711f31c0cd"},{"system":"https://bluebutton.cms.gov/resources/identifier/claim-group","value":"99999999999"}],"insurance":{"coverage":{"reference":"#coverage"}},"item":[{"extension":[{"url":"https://bluebutton.cms.gov/assets/ig/StructureDefinition-bluebutton-inpatient-rev-cntr-ndc-qty-extension","valueQuantity":{"value":0}}],"locationCodeableConcept":{"coding":[{"code":"21","display":"Inpatient Hospital","system":"https://bluebutton.cms.gov/resources/variables/line_place_of_srvc_cd"}]},"sequence":1}],"meta":{"lastUpdated":"2019-04-09T12:04:03.443001+00:00","profile":["https://bluebutton.cms.gov/assets/ig/StructureDefinition-bluebutton-inpatient-claim"],"versionId":"MTU1NDgxMTQ0MzQ0MzAwMTAwMA"},"organization":{"identifier":{"value":"fea46cf5-78cb-45ba-a53c-1889a8b8ee75"}},"patient":{"reference":"Patient/0b3ede79-49be-42b4-961e-a0e99e52b473"},"payment":{"amount":{"code":"USD","system":"urn:iso:std:iso:4217","value":0}},"provider":{"identifier":{"value":"9c1e389b-2076-44ab-917f-7e80069ab8d8"}},"resourceType":"ExplanationOfBenefit","status":"active","totalCost":{"code":"USD","system":"urn:iso:std:iso:4217","value":125},"type":{"coding":[{"code":"71","display":"Local carrier non-durable medical equipment, prosthetics, orthotics, and supplies (DMEPOS) claim","system":"https://bluebutton.cms.gov/resources/variables/nch_clm_type_cd"},{"code":"CARRIER","display":"EOB Type","system":"https://bluebutton.cms.gov/resources/codesystem/eob-type"},{"code":"professional","display":"Claim Type","system":"http://hl7.org/fhir/ex-claimtype"},{"code":"O","display":"Part B physician/supplier claim record (processed by local carriers; can include DMEPOS services)","system":"https://bluebutton.cms.gov/resources/variables/nch_near_line_rec_ident_cd"}]}}},{"resource":{"billablePeriod":{"end":"2004-01-27T12:16:28-05:00","extension":[{"url":"https://bluebutton.cms.gov/assets/ig/StructureDefinition-bluebutton-inpatient-claim-query-cd-extension","valueCoding":{"code":"3","display":"Final Bill","system":"https://bluebutton.cms.gov/assets/ig/ValueSet-claim-query-cd"}}],"start":"2003-01-27T12:16:28-05:00"},"careTeam":[{"provider":{"identifier":{"system":"http://hl7.org/fhir/sid/us-npi","value":"99999999"}},"role":{"coding":[{"code":"primary","display":"Primary Care Practitioner","system":"http://hl7.org/fhir/claimcareteamrole"}]},"sequence":1}],"contained":[{"id":"coverage","resourceType":"Coverage","type":{"text":"medicare"}}],"extension":[{"url":"https://bluebutton.cms.gov/assets/ig/StructureDefinition-bluebutton-inpatient-ime-op-clm-val-amt-extension","valueMoney":{"code":"USD","system":"urn:iso:std:iso:4217","value":400}},{"url":"https://bluebutton.cms.gov/assets/ig/StructureDefinition-bluebutton-inpatient-dsh-op-clm-val-amt-extension","valueMoney":{"code":"USD","system":"urn:iso:std:iso:4217","value":0}},{"url":"https://bluebutton.cms.gov/assets/ig/StructureDefinition-bluebutton-inpatient-clm-pass-thru-per-diem-amt-extension","valueMoney":{"code":"USD","system":"urn:iso:std:iso:4217","value":0}},{"url":"https://bluebutton.cms.gov/assets/ig/StructureDefinition-bluebutton-inpatient-nch-profnl-cmpnt-chrg-amt-extension","valueMoney":{"code":"USD","system":"urn:iso:std:iso:4217","value":0}},{"url":"https://bluebutton.cms.gov/assets/ig/StructureDefinition-bluebutton-inpatient-clm-tot-pps-cptl-amt-extension","valueMoney":{"code":"USD","system":"urn:iso:std:iso:4217","value":0}},{"url":"https://bluebutton.cms.gov/assets/ig/StructureDefinition-bluebutton-inpatient-nch-bene-ip-ddctbl-amt-extension","valueMoney":{"code":"USD","system":"urn:iso:std:iso:4217","value":0}},{"url":"https://bluebutton.cms.gov/assets/ig/StructureDefinition-bluebutton-inpatient-nch-bene-pta-coinsrnc-lblty-amt-extension","valueMoney":{"code":"USD","system":"urn:iso:std:iso:4217","value":0}},{"url":"https://bluebutton.cms.gov/assets/ig/StructureDefinition-bluebutton-inpatient-nch-ip-ncvrd-chrg-amt-extension","valueMoney":{"code":"USD","system":"urn:iso:std:iso:4217","value":0}},{"url":"https://bluebutton.cms.gov/assets/ig/StructureDefinition-bluebutton-inpatient-nch-ip-tot-ddctn-amt-extension","valueMoney":{"code":"USD","system":"urn:iso:std:iso:4217","value":0}},{"url":"https://bluebutton.cms.gov/assets/ig/StructureDefinition-bluebutton-inpatient-clm-pps-cptl-dsprprtnt-shr-amt-extension","valueMoney":{"code":"USD","system":"urn:iso:std:iso:4217","value":0}},{"url":"https://bluebutton.cms.gov/assets/ig/StructureDefinition-bluebutton-inpatient-clm-pps-cptl-excptn-amt-extension","valueMoney":{"code":"USD","system":"urn:iso:std:iso:4217","value":0}},{"url":"https://bluebutton.cms.gov/assets/ig/StructureDefinition-bluebutton-inpatient-clm-pps-cptl-fsp-amt-extension","valueMoney":{"code":"USD","system":"urn:iso:std:iso:4217","value":0}},{"url":"https://bluebutton.cms.gov/assets/ig/StructureDefinition-bluebutton-inpatient-clm-pps-cptl-ime-amt-extension","valueMoney":{"code":"USD","system":"urn:iso:std:iso:4217","value":400}},{"url":"https://bluebutton.cms.gov/assets/ig/StructureDefinition-bluebutton-inpatient-clm-pps-cptl-outlier-amt-extension","valueMoney":{"code":"USD","system":"urn:iso:std:iso:4217","value":0}},{"url":"https://bluebutton.cms.gov/assets/ig/StructureDefinition-bluebutton-inpatient-clm-pps-old-cptl-hld-hrmls-amt-extension","valueMoney":{"code":"USD","system":"urn:iso:std:iso:4217","value":0}},{"url":"https://bluebutton.cms.gov/assets/ig/StructureDefinition-bluebutton-inpatient-nch-drg-outlier-aprvd-pmt-amt-extension","valueMoney":{"code":"USD","system":"urn:iso:std:iso:4217","value":0}},{"url":"https://bluebutton.cms.gov/assets/ig/StructureDefinition-bluebutton-inpatient-nch-bene-blood-ddctbl-lblty-am-extension","valueMoney":{"code":"USD","system":"urn:iso:std:iso:4217","value":0}},{"url":"https://bluebutton.cms.gov/assets/ig/StructureDefinition-bluebutton-inpatient-clm-mdcr-non-pmt-rsn-cd-extension","valueCoding":{"code":"N","display":"All other reasons for non-payment","system":"https://bluebutton.cms.gov/assets/ig/CodeSystem-clm-mdcr-non-pmt-rsn-cd"}},{"url":"https://bluebutton.cms.gov/assets/ig/StructureDefinition-bluebutton-inpatient-prpayamt-extension","valueMoney":{"code":"USD","system":"urn:iso:std:iso:4217","value":0}},{"url":"https://bluebutton.cms.gov/assets/ig/StructureDefinition-bluebutton-inpatient-fi-num-extension","valueIdentifier":{"system":"https://bluebutton.cms.gov/assets/ig/CodeSystem-fi-num","value":"002000"}}],"id":"ee84c3eb-39f7-43b7-99b0-2111b63236a9","identifier":[{"system":"https://bluebutton.cms.gov/resources/variables/clm_id","value":"0650594e-f9f1-468e-b1c9-4fff390dc9e9"},{"system":"https://bluebutton.cms.gov/resources/identifier/claim-group","value":"99999999999"}],"insurance":{"coverage":{"reference":"#coverage"}},"item":[{"extension":[{"url":"https://bluebutton.cms.gov/assets/ig/StructureDefinition-bluebutton-inpatient-rev-cntr-ndc-qty-extension","valueQuantity":{"value":0}}],"locationCodeableConcept":{"coding":[{"code":"21","display":"Inpatient Hospital","system":"https://bluebutton.cms.gov/resources/variables/line_place_of_srvc_cd"}]},"sequence":1}],"meta":{"lastUpdated":"2019-04-09T12:04:03.446674+00:00","profile":["https://bluebutton.cms.gov/assets/ig/StructureDefinition-bluebutton-inpatient-claim"],"versionId":"MTU1NDgxMTQ0MzQ0NjY3NDAwMA"},"organization":{"identifier":{"value":"fea46cf5-78cb-45ba-a53c-1889a8b8ee75"}},"patient":{"reference":"Patient/0b3ede79-49be-42b4-961e-a0e99e52b473"},"payment":{"amount":{"code":"USD","system":"urn:iso:std:iso:4217","value":0}},"provider":{"identifier":{"value":"9c1e389b-2076-44ab-917f-7e80069ab8d8"}},"resourceType":"ExplanationOfBenefit","status":"active","totalCost":{"code":"USD","system":"urn:iso:std:iso:4217","value":125},"type":{"coding":[{"code":"71","display":"Local carrier non-durable medical equipment, prosthetics, orthotics, and supplies (DMEPOS) claim","system":"https://bluebutton.cms.gov/resources/variables/nch_clm_type_cd"},{"code":"CARRIER","display":"EOB Type","system":"https://bluebutton.cms.gov/resources/codesystem/eob-type"},{"code":"professional","display":"Claim Type","system":"http://hl7.org/fhir/ex-claimtype"},{"code":"O","display":"Part B physician/supplier claim record (processed by local carriers; can include DMEPOS services)","system":"https://bluebutton.cms.gov/resources/variables/nch_near_line_rec_ident_cd"}]}}},{"resource":{"billablePeriod":{"end":"2002-05-03T13:49:28-04:00","extension":[{"url":"https://bluebutton.cms.gov/assets/ig/StructureDefinition-bluebutton-inpatient-claim-query-cd-extension","valueCoding":{"code":"3","display":"Final Bill","system":"https://bluebutton.cms.gov/assets/ig/ValueSet-claim-query-cd"}}],"start":"2001-05-03T13:49:28-04:00"},"careTeam":[{"provider":{"identifier":{"system":"http://hl7.org/fhir/sid/us-npi","value":"99999999"}},"role":{"coding":[{"code":"primary","display":"Primary Care Practitioner","system":"http://hl7.org/fhir/claimcareteamrole"}]},"sequence":1}],"contained":[{"id":"coverage","resourceType":"Coverage","type":{"text":"medicare"}}],"extension":[{"url":"https://bluebutton.cms.gov/assets/ig/StructureDefinition-bluebutton-inpatient-ime-op-clm-val-amt-extension","valueMoney":{"code":"USD","system":"urn:iso:std:iso:4217","value":400}},{"url":"https://bluebutton.cms.gov/assets/ig/StructureDefinition-bluebutton-inpatient-dsh-op-clm-val-amt-extension","valueMoney":{"code":"USD","system":"urn:iso:std:iso:4217","value":0}},{"url":"https://bluebutton.cms.gov/assets/ig/StructureDefinition-bluebutton-inpatient-clm-pass-thru-per-diem-amt-extension","valueMoney":{"code":"USD","system":"urn:iso:std:iso:4217","value":0}},{"url":"https://bluebutton.cms.gov/assets/ig/StructureDefinition-bluebutton-inpatient-nch-profnl-cmpnt-chrg-amt-extension","valueMoney":{"code":"USD","system":"urn:iso:std:iso:4217","value":0}},{"url":"https://bluebutton.cms.gov/assets/ig/StructureDefinition-bluebutton-inpatient-clm-tot-pps-cptl-amt-extension","valueMoney":{"code":"USD","system":"urn:iso:std:iso:4217","value":0}},{"url":"https://bluebutton.cms.gov/assets/ig/StructureDefinition-bluebutton-inpatient-nch-bene-ip-ddctbl-amt-extension","valueMoney":{"code":"USD","system":"urn:iso:std:iso:4217","value":0}},{"url":"https://bluebutton.cms.gov/assets/ig/StructureDefinition-bluebutton-inpatient-nch-bene-pta-coinsrnc-lblty-amt-extension","valueMoney":{"code":"USD","system":"urn:iso:std:iso:4217","value":0}},{"url":"https://bluebutton.cms.gov/assets/ig/StructureDefinition-bluebutton-inpatient-nch-ip-ncvrd-chrg-amt-extension","valueMoney":{"code":"USD","system":"urn:iso:std:iso:4217","value":0}},{"url":"https://bluebutton.cms.gov/assets/ig/StructureDefinition-bluebutton-inpatient-nch-ip-tot-ddctn-amt-extension","valueMoney":{"code":"USD","system":"urn:iso:std:iso:4217","value":0}},{"url":"https://bluebutton.cms.gov/assets/ig/StructureDefinition-bluebutton-inpatient-clm-pps-cptl-dsprprtnt-shr-amt-extension","valueMoney":{"code":"USD","system":"urn:iso:std:iso:4217","value":0}},{"url":"https://bluebutton.cms.gov/assets/ig/StructureDefinition-bluebutton-inpatient-clm-pps-cptl-excptn-amt-extension","valueMoney":{"code":"USD","system":"urn:iso:std:iso:4217","value":0}},{"url":"https://bluebutton.cms.gov/assets/ig/StructureDefinition-bluebutton-inpatient-clm-pps-cptl-fsp-amt-extension","valueMoney":{"code":"USD","system":"urn:iso:std:iso:4217","value":0}},{"url":"https://bluebutton.cms.gov/assets/ig/StructureDefinition-bluebutton-inpatient-clm-pps-cptl-ime-amt-extension","valueMoney":{"code":"USD","system":"urn:iso:std:iso:4217","value":400}},{"url":"https://bluebutton.cms.gov/assets/ig/StructureDefinition-bluebutton-inpatient-clm-pps-cptl-outlier-amt-extension","valueMoney":{"code":"USD","system":"urn:iso:std:iso:4217","value":0}},{"url":"https://bluebutton.cms.gov/assets/ig/StructureDefinition-bluebutton-inpatient-clm-pps-old-cptl-hld-hrmls-amt-extension","valueMoney":{"code":"USD","system":"urn:iso:std:iso:4217","value":0}},{"url":"https://bluebutton.cms.gov/assets/ig/StructureDefinition-bluebutton-inpatient-nch-drg-outlier-aprvd-pmt-amt-extension","valueMoney":{"code":"USD","system":"urn:iso:std:iso:4217","value":0}},{"url":"https://bluebutton.cms.gov/assets/ig/StructureDefinition-bluebutton-inpatient-nch-bene-blood-ddctbl-lblty-am-extension","valueMoney":{"code":"USD","system":"urn:iso:std:iso:4217","value":0}},{"url":"https://bluebutton.cms.gov/assets/ig/StructureDefinition-bluebutton-inpatient-clm-mdcr-non-pmt-rsn-cd-extension","valueCoding":{"code":"N","display":"All other reasons for non-payment","system":"https://bluebutton.cms.gov/assets/ig/CodeSystem-clm-mdcr-non-pmt-rsn-cd"}},{"url":"https://bluebutton.cms.gov/assets/ig/StructureDefinition-bluebutton-inpatient-prpayamt-extension","valueMoney":{"code":"USD","system":"urn:iso:std:iso:4217","value":0}},{"url":"https://bluebutton.cms.gov/assets/ig/StructureDefinition-bluebutton-inpatient-fi-num-extension","valueIdentifier":{"system":"https://bluebutton.cms.gov/assets/ig/CodeSystem-fi-num","value":"002000"}}],"id":"f14bee4f-a019-4a66-ba9e-f261b7ac7930","identifier":[{"system":"https://bluebutton.cms.gov/resources/variables/clm_id","value":"50a6c04b-aa99-493f-b484-db3caaf19f1e"},{"system":"https://bluebutton.cms.gov/resources/identifier/claim-group","value":"99999999999"}],"insurance":{"coverage":{"reference":"#coverage"}},"item":[{"extension":[{"url":"https://bluebutton.cms.gov/assets/ig/StructureDefinition-bluebutton-inpatient-rev-cntr-ndc-qty-extension","valueQuantity":{"value":0}}],"locationCodeableConcept":{"coding":[{"code":"21","display":"Inpatient Hospital","system":"https://bluebutton.cms.gov/resources/variables/line_place_of_srvc_cd"}]},"sequence":1},{"adjudication":[{"amount":{"code":"USD","system":"urn:iso:std:iso:4217","value":1615.178},"category":{"coding":[{"code":"https://bluebutton.cms.gov/resources/variables/line_coinsrnc_amt","display":"Line Beneficiary Coinsurance Amount","system":"https://bluebutton.cms.gov/resources/codesystem/adjudication"}]}},{"amount":{"code":"USD","system":"urn:iso:std:iso:4217","value":6460.712},"category":{"coding":[{"code":"https://bluebutton.cms.gov/resources/variables/line_prvdr_pmt_amt","display":"Line Provider Payment Amount","system":"https://bluebutton.cms.gov/resources/codesystem/adjudication"}]}},{"amount":{"code":"USD","system":"urn:iso:std:iso:4217","value":8075.89},"category":{"coding":[{"code":"https://bluebutton.cms.gov/resources/variables/line_sbmtd_chrg_amt","display":"Line Submitted Charge Amount","system":"https://bluebutton.cms.gov/resources/codesystem/adjudication"}]}},{"amount":{"code":"USD","system":"urn:iso:std:iso:4217","value":8075.89},"category":{"coding":[{"code":"https://bluebutton.cms.gov/resources/variables/line_alowd_chrg_amt","display":"Line Allowed Charge Amount","system":"https://bluebutton.cms.gov/resources/codesystem/adjudication"}]}},{"amount":{"code":"USD","system":"urn:iso:std:iso:4217","value":0},"category":{"coding":[{"code":"https://bluebutton.cms.gov/resources/variables/line_bene_ptb_ddctbl_amt","display":"Line Beneficiary Part B Deductible Amount","system":"https://bluebutton.cms.gov/resources/codesystem/adjudication"}]}},{"category":{"coding":[{"code":"https://bluebutton.cms.gov/resources/variables/line_prcsg_ind_cd","display":"Line Processing Indicator Code","system":"https://bluebutton.cms.gov/resources/codesystem/adjudication"}]}}],"extension":[{"url":"https://bluebutton.cms.gov/assets/ig/StructureDefinition-bluebutton-inpatient-rev-cntr-ndc-qty-extension","valueQuantity":{"value":0}}],"locationCodeableConcept":{"coding":[{"code":"21","display":"Inpatient Hospital","system":"https://bluebutton.cms.gov/resources/variables/line_place_of_srvc_cd"}]},"sequence":2,"service":{"coding":[{"code":"73761001","system":"http://snomed.info/sct","version":"v1"}]}}],"meta":{"lastUpdated":"2019-04-09T12:04:03.443274+00:00","profile":["https://bluebutton.cms.gov/assets/ig/StructureDefinition-bluebutton-inpatient-claim"],"versionId":"MTU1NDgxMTQ0MzQ0MzI3NDAwMA"},"organization":{"identifier":{"value":"fea46cf5-78cb-45ba-a53c-1889a8b8ee75"}},"patient":{"reference":"Patient/0b3ede79-49be-42b4-961e-a0e99e52b473"},"payment":{"amount":{"code":"USD","system":"urn:iso:std:iso:4217","value":6460.712}},"provider":{"identifier":{"value":"9c1e389b-2076-44ab-917f-7e80069ab8d8"}},"resourceType":"ExplanationOfBenefit","status":"active","totalCost":{"code":"USD","system":"urn:iso:std:iso:4217","value":8200.89},"type":{"coding":[{"code":"71","display":"Local carrier non-durable medical equipment, prosthetics, orthotics, and supplies (DMEPOS) claim","system":"https://bluebutton.cms.gov/resources/variables/nch_clm_type_cd"},{"code":"CARRIER","display":"EOB Type","system":"https://bluebutton.cms.gov/resources/codesystem/eob-type"},{"code":"professional","display":"Claim Type","system":"http://hl7.org/fhir/ex-claimtype"},{"code":"O","display":"Part B physician/supplier claim record (processed by local carriers; can include DMEPOS services)","system":"https://bluebutton.cms.gov/resources/variables/nch_near_line_rec_ident_cd"}]}}},{"resource":{"date":"1997-08-26T13:01:28-04:00","encounter":{"reference":"Encounter/2c46a9c2-3d4e-4037-aab1-89910b37c929"},"id":"0aacbacb-4f36-4cd7-9c0c-f7178da1f1cb","meta":{"lastUpdated":"2019-04-09T12:04:02.420759+00:00","versionId":"MTU1NDgxMTQ0MjQyMDc1OTAwMA"},"notGiven":false,"patient":{"reference":"Patient/0b3ede79-49be-42b4-961e-a0e99e52b473"},"primarySource":true,"resourceType":"Immunization","status":"completed","vaccineCode":{"coding":[{"code":"140","display":"Influenza, seasonal, injectable, preservative free","system":"http://hl7.org/fhir/sid/cvx"}],"text":"Influenza, seasonal, injectable, preservative free"}}},{"resource":{"date":"1995-06-20T13:01:28-04:00","encounter":{"reference":"Encounter/dac7aeb3-11df-4464-b6c9-049e0ca35f8c"},"id":"1df53915-d89b-4626-a04c-0fae03d4e84e","meta":{"lastUpdated":"2019-04-09T12:04:02.384533+00:00","versionId":"MTU1NDgxMTQ0MjM4NDUzMzAwMA"},"notGiven":false,"patient":{"reference":"Patient/0b3ede79-49be-42b4-961e-a0e99e52b473"},"primarySource":true,"resourceType":"Immunization","status":"completed","vaccineCode":{"coding":[{"code":"140","display":"Influenza, seasonal, injectable, preservative free","system":"http://hl7.org/fhir/sid/cvx"}],"text":"Influenza, seasonal, injectable, preservative free"}}},{"resource":{"date":"1999-02-09T12:01:28-05:00","encounter":{"reference":"Encounter/c87473d8-d9fd-41e3-add3-1b8fea20b3f0"},"id":"34aec705-252d-4ee4-8d4a-748f2034ef5b","meta":{"lastUpdated":"2019-04-09T12:04:02.402439+00:00","versionId":"MTU1NDgxMTQ0MjQwMjQzOTAwMA"},"notGiven":false,"patient":{"reference":"Patient/0b3ede79-49be-42b4-961e-a0e99e52b473"},"primarySource":true,"resourceType":"Immunization","status":"completed","vaccineCode":{"coding":[{"code":"140","display":"Influenza, seasonal, injectable, preservative free","system":"http://hl7.org/fhir/sid/cvx"}],"text":"Influenza, seasonal, injectable, preservative free"}}},{"resource":{"date":"2002-02-26T12:01:28-05:00","encounter":{"reference":"Encounter/9c589eef-167c-4c05-9369-f235d546e1f1"},"id":"5249b390-b15b-46ee-a3fc-a5f51b586259","meta":{"lastUpdated":"2019-04-09T12:04:03.446233+00:00","versionId":"MTU1NDgxMTQ0MzQ0NjIzMzAwMA"},"notGiven":false,"patient":{"reference":"Patient/0b3ede79-49be-42b4-961e-a0e99e52b473"},"primarySource":true,"resourceType":"Immunization","status":"completed","vaccineCode":{"coding":[{"code":"140","display":"Influenza, seasonal, injectable, preservative free","system":"http://hl7.org/fhir/sid/cvx"}],"text":"Influenza, seasonal, injectable, preservative free"}}},{"resource":{"date":"2004-03-09T12:01:28-05:00","encounter":{"reference":"Encounter/053ba532-93c5-45ee-80d4-11decb2a6b2c"},"id":"5e86c131-bc59-4900-ba9b-04d9982b2ea0","meta":{"lastUpdated":"2019-04-09T12:04:03.446758+00:00","versionId":"MTU1NDgxMTQ0MzQ0Njc1ODAwMA"},"notGiven":false,"patient":{"reference":"Patient/0b3ede79-49be-42b4-961e-a0e99e52b473"},"primarySource":true,"resourceType":"Immunization","status":"completed","vaccineCode":{"coding":[{"code":"140","display":"Influenza, seasonal, injectable, preservative free","system":"http://hl7.org/fhir/sid/cvx"}],"text":"Influenza, seasonal, injectable, preservative free"}}},{"resource":{"date":"2000-02-15T12:01:28-05:00","encounter":{"reference":"Encounter/77e27dcf-d706-4596-9db7-628747830ef0"},"id":"85944244-a0b9-435e-83b3-a7544354d9b3","meta":{"lastUpdated":"2019-04-09T12:04:03.446676+00:00","versionId":"MTU1NDgxMTQ0MzQ0NjY3NjAwMA"},"notGiven":false,"patient":{"reference":"Patient/0b3ede79-49be-42b4-961e-a0e99e52b473"},"primarySource":true,"resourceType":"Immunization","status":"completed","vaccineCode":{"coding":[{"code":"140","display":"Influenza, seasonal, injectable, preservative free","system":"http://hl7.org/fhir/sid/cvx"}],"text":"Influenza, seasonal, injectable, preservative free"}}},{"resource":{"date":"1998-02-03T12:01:28-05:00","encounter":{"reference":"Encounter/bc5202fe-0320-418f-8829-0f345b2b8c1c"},"id":"a3e3f5df-ae48-4399-b4ac-ee28f99dfc7b","meta":{"lastUpdated":"2019-04-09T12:04:02.416406+00:00","versionId":"MTU1NDgxMTQ0MjQxNjQwNjAwMA"},"notGiven":false,"patient":{"reference":"Patient/0b3ede79-49be-42b4-961e-a0e99e52b473"},"primarySource":true,"resourceType":"Immunization","status":"completed","vaccineCode":{"coding":[{"code":"140","display":"Influenza, seasonal, injectable, preservative free","system":"http://hl7.org/fhir/sid/cvx"}],"text":"Influenza, seasonal, injectable, preservative free"}}},{"resource":{"date":"2003-03-04T12:01:28-05:00","encounter":{"reference":"Encounter/1eea8843-1bd6-4676-b0cd-b386a565660c"},"id":"bbef024e-36d3-4157-8994-229e26a26788","meta":{"lastUpdated":"2019-04-09T12:04:03.446685+00:00","versionId":"MTU1NDgxMTQ0MzQ0NjY4NTAwMA"},"notGiven":false,"patient":{"reference":"Patient/0b3ede79-49be-42b4-961e-a0e99e52b473"},"primarySource":true,"resourceType":"Immunization","status":"completed","vaccineCode":{"coding":[{"code":"140","display":"Influenza, seasonal, injectable, preservative free","system":"http://hl7.org/fhir/sid/cvx"}],"text":"Influenza, seasonal, injectable, preservative free"}}},{"resource":{"date":"1995-06-20T13:01:28-04:00","encounter":{"reference":"Encounter/dac7aeb3-11df-4464-b6c9-049e0ca35f8c"},"id":"cb18a2e3-0028-4864-9cfc-19e2ec42b468","meta":{"lastUpdated":"2019-04-09T12:04:02.374904+00:00","versionId":"MTU1NDgxMTQ0MjM3NDkwNDAwMA"},"notGiven":false,"patient":{"reference":"Patient/0b3ede79-49be-42b4-961e-a0e99e52b473"},"primarySource":true,"resourceType":"Immunization","status":"completed","vaccineCode":{"coding":[{"code":"113","display":"Td (adult) preservative free","system":"http://hl7.org/fhir/sid/cvx"}],"text":"Td (adult) preservative free"}}},{"resource":{"date":"1996-08-20T13:01:28-04:00","encounter":{"reference":"Encounter/7cbbe40b-7d7f-4fa4-875f-d52cc9d5b648"},"id":"d2660adc-ccb1-4115-8d26-07c89a22b167","meta":{"lastUpdated":"2019-04-09T12:04:02.405672+00:00","versionId":"MTU1NDgxMTQ0MjQwNTY3MjAwMA"},"notGiven":false,"patient":{"reference":"Patient/0b3ede79-49be-42b4-961e-a0e99e52b473"},"primarySource":true,"resourceType":"Immunization","status":"completed","vaccineCode":{"coding":[{"code":"140","display":"Influenza, seasonal, injectable, preservative free","system":"http://hl7.org/fhir/sid/cvx"}],"text":"Influenza, seasonal, injectable, preservative free"}}},{"resource":{"date":"2001-02-20T12:01:28-05:00","encounter":{"reference":"Encounter/2557a148-bd62-44f1-9ef9-7a3506e6860d"},"id":"e02defc2-e578-476e-a524-9fba1c7992ec","meta":{"lastUpdated":"2019-04-09T12:04:03.442910+00:00","versionId":"MTU1NDgxMTQ0MzQ0MjkxMDAwMA"},"notGiven":false,"patient":{"reference":"Patient/0b3ede79-49be-42b4-961e-a0e99e52b473"},"primarySource":true,"resourceType":"Immunization","status":"completed","vaccineCode":{"coding":[{"code":"140","display":"Influenza, seasonal, injectable, preservative free","system":"http://hl7.org/fhir/sid/cvx"}],"text":"Influenza, seasonal, injectable, preservative free"}}},{"resource":{"authoredOn":"1999-05-18T13:01:28-04:00","context":{"reference":"Encounter/0a79db40-56b8-4d3d-afee-aa0703b9c371"},"id":"24a41fc1-d706-4d13-adb9-de0debfc6a57","intent":"order","medicationCodeableConcept":{"coding":[{"code":"998582","display":"Donepezil hydrochloride 23 MG [Aricept]","system":"http://www.nlm.nih.gov/research/umls/rxnorm"}],"text":"Donepezil hydrochloride 23 MG [Aricept]"},"meta":{"lastUpdated":"2019-04-09T12:04:03.451974+00:00","versionId":"MTU1NDgxMTQ0MzQ1MTk3NDAwMA"},"reasonReference":[{"reference":"Condition/cbd9b36a-6667-4687-805a-7c8815109db3"}],"requester":{"agent":{"reference":"Practitioner/9c1e389b-2076-44ab-917f-7e80069ab8d8"},"onBehalfOf":{"reference":"Organization/fea46cf5-78cb-45ba-a53c-1889a8b8ee75"}},"resourceType":"MedicationRequest","status":"active","subject":{"reference":"Patient/0b3ede79-49be-42b4-961e-a0e99e52b473"}}},{"resource":{"authoredOn":"1975-02-06T12:01:28-05:00","context":{"reference":"Encounter/e3a63385-7b88-487b-b022-1fb9cf971993"},"id":"3d837f06-1942-464f-9ce9-63111b584f7a","intent":"order","medicationCodeableConcept":{"coding":[{"code":"849574","display":"Naproxen sodium 220 MG Oral Tablet","system":"http://www.nlm.nih.gov/research/umls/rxnorm"}],"text":"Naproxen sodium 220 MG Oral Tablet"},"meta":{"lastUpdated":"2019-04-09T12:04:02.386573+00:00","versionId":"MTU1NDgxMTQ0MjM4NjU3MzAwMA"},"reasonReference":[{"reference":"Condition/63f2e619-0189-4451-ab0b-182299be7ca6"}],"requester":{"agent":{"reference":"Practitioner/9c1e389b-2076-44ab-917f-7e80069ab8d8"},"onBehalfOf":{"reference":"Organization/fea46cf5-78cb-45ba-a53c-1889a8b8ee75"}},"resourceType":"MedicationRequest","status":"active","subject":{"reference":"Patient/0b3ede79-49be-42b4-961e-a0e99e52b473"}}},{"resource":{"authoredOn":"1997-08-26T13:01:28-04:00","context":{"reference":"Encounter/2c46a9c2-3d4e-4037-aab1-89910b37c929"},"id":"417be659-ff91-43e6-9d79-bf4b1946b80f","intent":"order","medicationCodeableConcept":{"coding":[{"code":"997223","display":"Donepezil hydrochloride 10 MG Oral Tablet","system":"http://www.nlm.nih.gov/research/umls/rxnorm"}],"text":"Donepezil hydrochloride 10 MG Oral Tablet"},"meta":{"lastUpdated":"2019-04-09T12:04:02.414564+00:00","versionId":"MTU1NDgxMTQ0MjQxNDU2NDAwMA"},"reasonReference":[{"reference":"Condition/cbd9b36a-6667-4687-805a-7c8815109db3"}],"requester":{"agent":{"reference":"Practitioner/9c1e389b-2076-44ab-917f-7e80069ab8d8"},"onBehalfOf":{"reference":"Organization/fea46cf5-78cb-45ba-a53c-1889a8b8ee75"}},"resourceType":"MedicationRequest","status":"active","subject":{"reference":"Patient/0b3ede79-49be-42b4-961e-a0e99e52b473"}}},{"resource":{"authoredOn":"1995-07-31T13:01:28-04:00","context":{"reference":"Encounter/f48f388e-50a8-4a61-a736-58a76869b884"},"id":"ed984e68-4cf5-4790-a07c-de5282fd4c32","intent":"order","medicationCodeableConcept":{"coding":[{"code":"562251","display":"Amoxicillin 250 MG / Clavulanate 125 MG Oral Tablet","system":"http://www.nlm.nih.gov/research/umls/rxnorm"}],"text":"Amoxicillin 250 MG / Clavulanate 125 MG Oral Tablet"},"meta":{"lastUpdated":"2019-04-09T12:04:02.380269+00:00","versionId":"MTU1NDgxMTQ0MjM4MDI2OTAwMA"},"reasonReference":[{"reference":"Condition/ded4d88f-c23a-460f-9dde-f422ea6fd570"}],"requester":{"agent":{"reference":"Practitioner/9c1e389b-2076-44ab-917f-7e80069ab8d8"},"onBehalfOf":{"reference":"Organization/fea46cf5-78cb-45ba-a53c-1889a8b8ee75"}},"resourceType":"MedicationRequest","status":"stopped","subject":{"reference":"Patient/0b3ede79-49be-42b4-961e-a0e99e52b473"}}},{"resource":{"category":[{"coding":[{"code":"survey","display":"survey","system":"http://hl7.org/fhir/observation-category"}]}],"code":{"coding":[{"code":"72106-8","display":"Total score [MMSE]","system":"http://loinc.org"}],"text":"Total score [MMSE]"},"context":{"reference":"Encounter/0a79db40-56b8-4d3d-afee-aa0703b9c371"},"effectiveDateTime":"1999-05-18T13:01:28-04:00","id":"010d0ba5-9134-4027-a82d-24e66f84c83e","issued":"1999-05-18T13:01:28.006-04:00","meta":{"lastUpdated":"2019-04-09T12:04:03.443043+00:00","versionId":"MTU1NDgxMTQ0MzQ0MzA0MzAwMA"},"resourceType":"Observation","status":"final","subject":{"reference":"Patient/0b3ede79-49be-42b4-961e-a0e99e52b473"},"valueQuantity":{"code":"(score)","system":"http://unitsofmeasure.org","unit":"(score)","value":14.023668798381454}}},{"resource":{"category":[{"coding":[{"code":"laboratory","display":"laboratory","system":"http://hl7.org/fhir/observation-category"}]}],"code":{"coding":[{"code":"32207-3","display":"Platelet distribution width [Entitic volume] in Blood by Automated count","system":"http://loinc.org"}],"text":"Platelet distribution width [Entitic volume] in Blood by Automated count"},"context":{"reference":"Encounter/7cbbe40b-7d7f-4fa4-875f-d52cc9d5b648"},"effectiveDateTime":"1996-08-20T13:01:28-04:00","id":"0180ff8f-181f-4f15-9a1e-9e7d875ee66c","issued":"1996-08-20T13:01:28.006-04:00","meta":{"lastUpdated":"2019-04-09T12:04:02.396153+00:00","versionId":"MTU1NDgxMTQ0MjM5NjE1MzAwMA"},"resourceType":"Observation","status":"final","subject":{"reference":"Patient/0b3ede79-49be-42b4-961e-a0e99e52b473"},"valueQuantity":{"code":"fL","system":"http://unitsofmeasure.org","unit":"fL","value":389.5681954476848}}},{"resource":{"category":[{"coding":[{"code":"vital-signs","display":"vital-signs","system":"http://hl7.org/fhir/observation-category"}]}],"code":{"coding":[{"code":"72514-3","display":"Pain severity - 0-10 verbal numeric rating [Score] - Reported","system":"http://loinc.org"}],"text":"Pain severity - 0-10 verbal numeric rating [Score] - Reported"},"context":{"reference":"Encounter/1eea8843-1bd6-4676-b0cd-b386a565660c"},"effectiveDateTime":"2003-03-04T12:01:28-05:00","id":"0a30b204-52ec-4628-be66-519efd427ef5","issued":"2003-03-04T12:01:28.006-05:00","meta":{"lastUpdated":"2019-04-09T12:04:03.446692+00:00","versionId":"MTU1NDgxMTQ0MzQ0NjY5MjAwMA"},"resourceType":"Observation","status":"final","subject":{"reference":"Patient/0b3ede79-49be-42b4-961e-a0e99e52b473"},"valueQuantity":{"code":"{score}","system":"http://unitsofmeasure.org","unit":"{score}","value":3.1985320140058637}}},{"resource":{"category":[{"coding":[{"code":"vital-signs","display":"vital-signs","system":"http://hl7.org/fhir/observation-category"}]}],"code":{"coding":[{"code":"72514-3","display":"Pain severity - 0-10 verbal numeric rating [Score] - Reported","system":"http://loinc.org"}],"text":"Pain severity - 0-10 verbal numeric rating [Score] - Reported"},"context":{"reference":"Encounter/c4c77f57-0b5f-4c3e-8a2b-66d1190f51cb"},"effectiveDateTime":"1995-08-15T13:01:28-04:00","id":"0bad9c62-98f7-427a-96cc-bbe703bf23bd","issued":"1995-08-15T13:01:28.006-04:00","meta":{"lastUpdated":"2019-04-09T12:04:02.374607+00:00","versionId":"MTU1NDgxMTQ0MjM3NDYwNzAwMA"},"resourceType":"Observation","status":"final","subject":{"reference":"Patient/0b3ede79-49be-42b4-961e-a0e99e52b473"},"valueQuantity":{"code":"{score}","system":"http://unitsofmeasure.org","unit":"{score}","value":3.8378347828135073}}},{"resource":{"category":[{"coding":[{"code":"laboratory","display":"laboratory","system":"http://hl7.org/fhir/observation-category"}]}],"code":{"coding":[{"code":"2085-9","display":"High Density Lipoprotein Cholesterol","system":"http://loinc.org"}],"text":"High Density Lipoprotein Cholesterol"},"context":{"reference":"Encounter/9c589eef-167c-4c05-9369-f235d546e1f1"},"effectiveDateTime":"2002-02-26T12:01:28-05:00","id":"0bbb139c-1d7d-415f-8d1b-b5cba55bb1a6","issued":"2002-02-26T12:01:28.006-05:00","meta":{"lastUpdated":"2019-04-09T12:04:03.452585+00:00","versionId":"MTU1NDgxMTQ0MzQ1MjU4NTAwMA"},"resourceType":"Observation","status":"final","subject":{"reference":"Patient/0b3ede79-49be-42b4-961e-a0e99e52b473"},"valueQuantity":{"code":"mg/dL","system":"http://unitsofmeasure.org","unit":"mg/dL","value":68.63791120869956}}},{"resource":{"category":[{"coding":[{"code":"vital-signs","display":"vital-signs","system":"http://hl7.org/fhir/observation-category"}]}],"code":{"coding":[{"code":"72514-3","display":"Pain severity - 0-10 verbal numeric rating [Score] - Reported","system":"http://loinc.org"}],"text":"Pain severity - 0-10 verbal numeric rating [Score] - Reported"},"context":{"reference":"Encounter/2557a148-bd62-44f1-9ef9-7a3506e6860d"},"effectiveDateTime":"2001-02-20T12:01:28-05:00","id":"0bfe523b-dc10-4905-a08e-f4ca210836f1","issued":"2001-02-20T12:01:28.006-05:00","meta":{"lastUpdated":"2019-04-09T12:04:03.446683+00:00","versionId":"MTU1NDgxMTQ0MzQ0NjY4MzAwMA"},"resourceType":"Observation","status":"final","subject":{"reference":"Patient/0b3ede79-49be-42b4-961e-a0e99e52b473"},"valueQuantity":{"code":"{score}","system":"http://unitsofmeasure.org","unit":"{score}","value":1.4571206556952139}}},{"resource":{"category":[{"coding":[{"code":"vital-signs","display":"vital-signs","system":"http://hl7.org/fhir/observation-category"}]}],"code":{"coding":[{"code":"29463-7","display":"Body Weight","system":"http://loinc.org"}],"text":"Body Weight"},"context":{"reference":"Encounter/bc5202fe-0320-418f-8829-0f345b2b8c1c"},"effectiveDateTime":"1998-02-03T12:01:28-05:00","id":"0c0260b5-c647-4ac3-849d-61543c374da2","issued":"1998-02-03T12:01:28.006-05:00","meta":{"lastUpdated":"2019-04-09T12:04:02.411136+00:00","versionId":"MTU1NDgxMTQ0MjQxMTEzNjAwMA"},"resourceType":"Observation","status":"final","subject":{"reference":"Patient/0b3ede79-49be-42b4-961e-a0e99e52b473"},"valueQuantity":{"code":"kg","system":"http://unitsofmeasure.org","unit":"kg","value":85.8399913762837}}},{"resource":{"category":[{"coding":[{"code":"vital-signs","display":"vital-signs","system":"http://hl7.org/fhir/observation-category"}]}],"code":{"coding":[{"code":"55284-4","display":"Blood Pressure","system":"http://loinc.org"}],"text":"Blood Pressure"},"component":[{"code":{"coding":[{"code":"8462-4","display":"Diastolic Blood Pressure","system":"http://loinc.org"}],"text":"Diastolic Blood Pressure"},"valueQuantity":{"code":"mmHg","system":"http://unitsofmeasure.org","unit":"mmHg","value":88.42604508493164}},{"code":{"coding":[{"code":"8480-6","display":"Systolic Blood Pressure","system":"http://loinc.org"}],"text":"Systolic Blood Pressure"},"valueQuantity":{"code":"mmHg","system":"http://unitsofmeasure.org","unit":"mmHg","value":116.77062402179332}}],"context":{"reference":"Encounter/2557a148-bd62-44f1-9ef9-7a3506e6860d"},"effectiveDateTime":"2001-02-20T12:01:28-05:00","id":"0d111cc7-6894-4993-9baa-5f18203f013c","issued":"2001-02-20T12:01:28.006-05:00","meta":{"lastUpdated":"2019-04-09T12:04:03.446680+00:00","versionId":"MTU1NDgxMTQ0MzQ0NjY4MDAwMA"},"resourceType":"Observation","status":"final","subject":{"reference":"Patient/0b3ede79-49be-42b4-961e-a0e99e52b473"}}},{"resource":{"category":[{"coding":[{"code":"laboratory","display":"laboratory","system":"http://hl7.org/fhir/observation-category"}]}],"code":{"coding":[{"code":"786-4","display":"MCHC [Mass/volume] by Automated count","system":"http://loinc.org"}],"text":"MCHC [Mass/volume] by Automated count"},"context":{"reference":"Encounter/9c589eef-167c-4c05-9369-f235d546e1f1"},"effectiveDateTime":"2002-02-26T12:01:28-05:00","id":"107d13e2-7014-484f-a5b1-9df33d714dee","issued":"2002-02-26T12:01:28.006-05:00","meta":{"lastUpdated":"2019-04-09T12:04:03.452586+00:00","versionId":"MTU1NDgxMTQ0MzQ1MjU4NjAwMA"},"resourceType":"Observation","status":"final","subject":{"reference":"Patient/0b3ede79-49be-42b4-961e-a0e99e52b473"},"valueQuantity":{"code":"g/dL","system":"http://unitsofmeasure.org","unit":"g/dL","value":34.03513579475137}}},{"resource":{"category":[{"coding":[{"code":"vital-signs","display":"vital-signs","system":"http://hl7.org/fhir/observation-category"}]}],"code":{"coding":[{"code":"72514-3","display":"Pain severity - 0-10 verbal numeric rating [Score] - Reported","system":"http://loinc.org"}],"text":"Pain severity - 0-10 verbal numeric rating [Score] - Reported"},"context":{"reference":"Encounter/053ba532-93c5-45ee-80d4-11decb2a6b2c"},"effectiveDateTime":"2004-03-09T12:01:28-05:00","id":"110c9c28-8e46-4904-95a5-9f14116b1eb9","issued":"2004-03-09T12:01:28.006-05:00","meta":{"lastUpdated":"2019-04-09T12:04:03.446757+00:00","versionId":"MTU1NDgxMTQ0MzQ0Njc1NzAwMA"},"resourceType":"Observation","status":"final","subject":{"reference":"Patient/0b3ede79-49be-42b4-961e-a0e99e52b473"},"valueQuantity":{"code":"{score}","system":"http://unitsofmeasure.org","unit":"{score}","value":3.3252076593034148}}},{"resource":{"category":[{"coding":[{"code":"vital-signs","display":"vital-signs","system":"http://hl7.org/fhir/observation-category"}]}],"code":{"coding":[{"code":"39156-5","display":"Body Mass Index","system":"http://loinc.org"}],"text":"Body Mass Index"},"context":{"reference":"Encounter/2557a148-bd62-44f1-9ef9-7a3506e6860d"},"effectiveDateTime":"2001-02-20T12:01:28-05:00","id":"1567435f-5da4-4476-b799-e46cbf277a55","issued":"2001-02-20T12:01:28.006-05:00","meta":{"lastUpdated":"2019-04-09T12:04:03.453347+00:00","versionId":"MTU1NDgxMTQ0MzQ1MzM0NzAwMA"},"resourceType":"Observation","status":"final","subject":{"reference":"Patient/0b3ede79-49be-42b4-961e-a0e99e52b473"},"valueQuantity":{"code":"kg/m2","system":"http://unitsofmeasure.org","unit":"kg/m2","value":23.754767016305287}}},{"resource":{"category":[{"coding":[{"code":"vital-signs","display":"vital-signs","system":"http://hl7.org/fhir/observation-category"}]}],"code":{"coding":[{"code":"29463-7","display":"Body Weight","system":"http://loinc.org"}],"text":"Body Weight"},"context":{"reference":"Encounter/9c589eef-167c-4c05-9369-f235d546e1f1"},"effectiveDateTime":"2002-02-26T12:01:28-05:00","id":"16165dec-d0a2-44fe-8101-d1485fd62561","issued":"2002-02-26T12:01:28.006-05:00","meta":{"lastUpdated":"2019-04-09T12:04:03.445781+00:00","versionId":"MTU1NDgxMTQ0MzQ0NTc4MTAwMA"},"resourceType":"Observation","status":"final","subject":{"reference":"Patient/0b3ede79-49be-42b4-961e-a0e99e52b473"},"valueQuantity":{"code":"kg","system":"http://unitsofmeasure.org","unit":"kg","value":78.72256786226146}}},{"resource":{"category":[{"coding":[{"code":"laboratory","display":"laboratory","system":"http://hl7.org/fhir/observation-category"}]}],"code":{"coding":[{"code":"21000-5","display":"Erythrocyte distribution width [Entitic volume] by Automated count","system":"http://loinc.org"}],"text":"Erythrocyte distribution width [Entitic volume] by Automated count"},"context":{"reference":"Encounter/7cbbe40b-7d7f-4fa4-875f-d52cc9d5b648"},"effectiveDateTime":"1996-08-20T13:01:28-04:00","id":"18436c26-9899-4fb1-9669-d9e4c56dbf8c","issued":"1996-08-20T13:01:28.006-04:00","meta":{"lastUpdated":"2019-04-09T12:04:02.396049+00:00","versionId":"MTU1NDgxMTQ0MjM5NjA0OTAwMA"},"resourceType":"Observation","status":"final","subject":{"reference":"Patient/0b3ede79-49be-42b4-961e-a0e99e52b473"},"valueQuantity":{"code":"fL","system":"http://unitsofmeasure.org","unit":"fL","value":44.26477034197893}}},{"resource":{"category":[{"coding":[{"code":"laboratory","display":"laboratory","system":"http://hl7.org/fhir/observation-category"}]}],"code":{"coding":[{"code":"787-2","display":"MCV [Entitic volume] by Automated count","system":"http://loinc.org"}],"text":"MCV [Entitic volume] by Automated count"},"context":{"reference":"Encounter/9c589eef-167c-4c05-9369-f235d546e1f1"},"effectiveDateTime":"2002-02-26T12:01:28-05:00","id":"1fe4d3a1-2c7d-42a0-9583-d93c9cc3c11b","issued":"2002-02-26T12:01:28.006-05:00","meta":{"lastUpdated":"2019-04-09T12:04:03.450752+00:00","versionId":"MTU1NDgxMTQ0MzQ1MDc1MjAwMA"},"resourceType":"Observation","status":"final","subject":{"reference":"Patient/0b3ede79-49be-42b4-961e-a0e99e52b473"},"valueQuantity":{"code":"fL","system":"http://unitsofmeasure.org","unit":"fL","value":90.45750596980066}}},{"resource":{"category":[{"coding":[{"code":"laboratory","display":"laboratory","system":"http://hl7.org/fhir/observation-category"}]}],"code":{"coding":[{"code":"777-3","display":"Platelets [#/volume] in Blood by Automated count","system":"http://loinc.org"}],"text":"Platelets [#/volume] in Blood by Automated count"},"context":{"reference":"Encounter/7cbbe40b-7d7f-4fa4-875f-d52cc9d5b648"},"effectiveDateTime":"1996-08-20T13:01:28-04:00","id":"2076cb7d-282c-4cf8-a33d-8fcb74f533c3","issued":"1996-08-20T13:01:28.006-04:00","meta":{"lastUpdated":"2019-04-09T12:04:02.405673+00:00","versionId":"MTU1NDgxMTQ0MjQwNTY3MzAwMA"},"resourceType":"Observation","status":"final","subject":{"reference":"Patient/0b3ede79-49be-42b4-961e-a0e99e52b473"},"valueQuantity":{"code":"10*3/uL","system":"http://unitsofmeasure.org","unit":"10*3/uL","value":302.6625476803073}}},{"resource":{"category":[{"coding":[{"code":"vital-signs","display":"vital-signs","system":"http://hl7.org/fhir/observation-category"}]}],"code":{"coding":[{"code":"8302-2","display":"Body Height","system":"http://loinc.org"}],"text":"Body Height"},"context":{"reference":"Encounter/c87473d8-d9fd-41e3-add3-1b8fea20b3f0"},"effectiveDateTime":"1999-02-09T12:01:28-05:00","id":"2177aff0-62de-4495-8a3f-7aaa2eafcf87","issued":"1999-02-09T12:01:28.006-05:00","meta":{"lastUpdated":"2019-04-09T12:04:02.420833+00:00","versionId":"MTU1NDgxMTQ0MjQyMDgzMzAwMA"},"resourceType":"Observation","status":"final","subject":{"reference":"Patient/0b3ede79-49be-42b4-961e-a0e99e52b473"},"valueQuantity":{"code":"cm","system":"http://unitsofmeasure.org","unit":"cm","value":185.33988895464805}}},{"resource":{"category":[{"coding":[{"code":"laboratory","display":"laboratory","system":"http://hl7.org/fhir/observation-category"}]}],"code":{"coding":[{"code":"2571-8","display":"Triglycerides","system":"http://loinc.org"}],"text":"Triglycerides"},"context":{"reference":"Encounter/dac7aeb3-11df-4464-b6c9-049e0ca35f8c"},"effectiveDateTime":"1995-06-20T13:01:28-04:00","id":"21d3d7c6-b27b-4435-aab8-efba58b28fd9","issued":"1995-06-20T13:01:28.006-04:00","meta":{"lastUpdated":"2019-04-09T12:04:02.375408+00:00","versionId":"MTU1NDgxMTQ0MjM3NTQwODAwMA"},"resourceType":"Observation","status":"final","subject":{"reference":"Patient/0b3ede79-49be-42b4-961e-a0e99e52b473"},"valueQuantity":{"code":"mg/dL","system":"http://unitsofmeasure.org","unit":"mg/dL","value":134.5047301232335}}},{"resource":{"category":[{"coding":[{"code":"survey","display":"survey","system":"http://hl7.org/fhir/observation-category"}]}],"code":{"coding":[{"code":"72166-2","display":"Tobacco smoking status NHIS","system":"http://loinc.org"}],"text":"Tobacco smoking status NHIS"},"context":{"reference":"Encounter/053ba532-93c5-45ee-80d4-11decb2a6b2c"},"effectiveDateTime":"2004-03-09T12:01:28-05:00","id":"2238b50f-1a6f-4404-8ee3-0748e2a3d8ac","issued":"2004-03-09T12:01:28.006-05:00","meta":{"lastUpdated":"2019-04-09T12:04:03.451205+00:00","versionId":"MTU1NDgxMTQ0MzQ1MTIwNTAwMA"},"resourceType":"Observation","status":"final","subject":{"reference":"Patient/0b3ede79-49be-42b4-961e-a0e99e52b473"},"valueCodeableConcept":{"coding":[{"code":"8517006","display":"Former smoker","system":"http://snomed.info/sct"}],"text":"Former smoker"}}},{"resource":{"category":[{"coding":[{"code":"vital-signs","display":"vital-signs","system":"http://hl7.org/fhir/observation-category"}]}],"code":{"coding":[{"code":"72514-3","display":"Pain severity - 0-10 verbal numeric rating [Score] - Reported","system":"http://loinc.org"}],"text":"Pain severity - 0-10 verbal numeric rating [Score] - Reported"},"context":{"reference":"Encounter/2c46a9c2-3d4e-4037-aab1-89910b37c929"},"effectiveDateTime":"1997-08-26T13:01:28-04:00","id":"23111e20-aea5-4f09-a482-45b011d51ec3","issued":"1997-08-26T13:01:28.006-04:00","meta":{"lastUpdated":"2019-04-09T12:04:02.411300+00:00","versionId":"MTU1NDgxMTQ0MjQxMTMwMDAwMA"},"resourceType":"Observation","status":"final","subject":{"reference":"Patient/0b3ede79-49be-42b4-961e-a0e99e52b473"},"valueQuantity":{"code":"{score}","system":"http://unitsofmeasure.org","unit":"{score}","value":1.6686821744248341}}},{"resource":{"category":[{"coding":[{"code":"vital-signs","display":"vital-signs","system":"http://hl7.org/fhir/observation-category"}]}],"code":{"coding":[{"code":"55284-4","display":"Blood Pressure","system":"http://loinc.org"}],"text":"Blood Pressure"},"component":[{"code":{"coding":[{"code":"8462-4","display":"Diastolic Blood Pressure","system":"http://loinc.org"}],"text":"Diastolic Blood Pressure"},"valueQuantity":{"code":"mmHg","system":"http://unitsofmeasure.org","unit":"mmHg","value":83.78702522997563}},{"code":{"coding":[{"code":"8480-6","display":"Systolic Blood Pressure","system":"http://loinc.org"}],"text":"Systolic Blood Pressure"},"valueQuantity":{"code":"mmHg","system":"http://unitsofmeasure.org","unit":"mmHg","value":120.73141917821765}}],"context":{"reference":"Encounter/2c46a9c2-3d4e-4037-aab1-89910b37c929"},"effectiveDateTime":"1997-08-26T13:01:28-04:00","id":"2968fff4-4593-43bf-b8c9-6695bb5234a4","issued":"1997-08-26T13:01:28.006-04:00","meta":{"lastUpdated":"2019-04-09T12:04:02.397381+00:00","versionId":"MTU1NDgxMTQ0MjM5NzM4MTAwMA"},"resourceType":"Observation","status":"final","subject":{"reference":"Patient/0b3ede79-49be-42b4-961e-a0e99e52b473"}}},{"resource":{"category":[{"coding":[{"code":"laboratory","display":"laboratory","system":"http://hl7.org/fhir/observation-category"}]}],"code":{"coding":[{"code":"786-4","display":"MCHC [Mass/volume] by Automated count","system":"http://loinc.org"}],"text":"MCHC [Mass/volume] by Automated count"},"context":{"reference":"Encounter/7cbbe40b-7d7f-4fa4-875f-d52cc9d5b648"},"effectiveDateTime":"1996-08-20T13:01:28-04:00","id":"2986fee2-5a98-4d14-8dd6-0691d7fb91fd","issued":"1996-08-20T13:01:28.006-04:00","meta":{"lastUpdated":"2019-04-09T12:04:02.391927+00:00","versionId":"MTU1NDgxMTQ0MjM5MTkyNzAwMA"},"resourceType":"Observation","status":"final","subject":{"reference":"Patient/0b3ede79-49be-42b4-961e-a0e99e52b473"},"valueQuantity":{"code":"g/dL","system":"http://unitsofmeasure.org","unit":"g/dL","value":34.94389715796457}}},{"resource":{"category":[{"coding":[{"code":"vital-signs","display":"vital-signs","system":"http://hl7.org/fhir/observation-category"}]}],"code":{"coding":[{"code":"55284-4","display":"Blood Pressure","system":"http://loinc.org"}],"text":"Blood Pressure"},"component":[{"code":{"coding":[{"code":"8462-4","display":"Diastolic Blood Pressure","system":"http://loinc.org"}],"text":"Diastolic Blood Pressure"},"valueQuantity":{"code":"mmHg","system":"http://unitsofmeasure.org","unit":"mmHg","value":70.18212413778016}},{"code":{"coding":[{"code":"8480-6","display":"Systolic Blood Pressure","system":"http://loinc.org"}],"text":"Systolic Blood Pressure"},"valueQuantity":{"code":"mmHg","system":"http://unitsofmeasure.org","unit":"mmHg","value":107.1988201757415}}],"context":{"reference":"Encounter/bc5202fe-0320-418f-8829-0f345b2b8c1c"},"effectiveDateTime":"1998-02-03T12:01:28-05:00","id":"2a3415c8-f1c5-46d5-a791-eda56d031835","issued":"1998-02-03T12:01:28.006-05:00","meta":{"lastUpdated":"2019-04-09T12:04:02.414595+00:00","versionId":"MTU1NDgxMTQ0MjQxNDU5NTAwMA"},"resourceType":"Observation","status":"final","subject":{"reference":"Patient/0b3ede79-49be-42b4-961e-a0e99e52b473"}}},{"resource":{"category":[{"coding":[{"code":"laboratory","display":"laboratory","system":"http://hl7.org/fhir/observation-category"}]}],"code":{"coding":[{"code":"2093-3","display":"Total Cholesterol","system":"http://loinc.org"}],"text":"Total Cholesterol"},"context":{"reference":"Encounter/c87473d8-d9fd-41e3-add3-1b8fea20b3f0"},"effectiveDateTime":"1999-02-09T12:01:28-05:00","id":"2a3d3204-bb79-4c2d-8394-8b3c1a1d11b3","issued":"1999-02-09T12:01:28.006-05:00","meta":{"lastUpdated":"2019-04-09T12:04:02.411027+00:00","versionId":"MTU1NDgxMTQ0MjQxMTAyNzAwMA"},"resourceType":"Observation","status":"final","subject":{"reference":"Patient/0b3ede79-49be-42b4-961e-a0e99e52b473"},"valueQuantity":{"code":"mg/dL","system":"http://unitsofmeasure.org","unit":"mg/dL","value":195.42901252948968}}},{"resource":{"category":[{"coding":[{"code":"survey","display":"survey","system":"http://hl7.org/fhir/observation-category"}]}],"code":{"coding":[{"code":"72166-2","display":"Tobacco smoking status NHIS","system":"http://loinc.org"}],"text":"Tobacco smoking status NHIS"},"context":{"reference":"Encounter/c87473d8-d9fd-41e3-add3-1b8fea20b3f0"},"effectiveDateTime":"1999-02-09T12:01:28-05:00","id":"2bcd60b1-90e6-46a2-9f20-b32ffbfe51ba","issued":"1999-02-09T12:01:28.006-05:00","meta":{"lastUpdated":"2019-04-09T12:04:02.411135+00:00","versionId":"MTU1NDgxMTQ0MjQxMTEzNTAwMA"},"resourceType":"Observation","status":"final","subject":{"reference":"Patient/0b3ede79-49be-42b4-961e-a0e99e52b473"},"valueCodeableConcept":{"coding":[{"code":"8517006","display":"Former smoker","system":"http://snomed.info/sct"}],"text":"Former smoker"}}},{"resource":{"category":[{"coding":[{"code":"laboratory","display":"laboratory","system":"http://hl7.org/fhir/observation-category"}]}],"code":{"coding":[{"code":"2571-8","display":"Triglycerides","system":"http://loinc.org"}],"text":"Triglycerides"},"context":{"reference":"Encounter/c87473d8-d9fd-41e3-add3-1b8fea20b3f0"},"effectiveDateTime":"1999-02-09T12:01:28-05:00","id":"2c3a4772-3ff4-4c51-ac98-a071140cd302","issued":"1999-02-09T12:01:28.006-05:00","meta":{"lastUpdated":"2019-04-09T12:04:02.411233+00:00","versionId":"MTU1NDgxMTQ0MjQxMTIzMzAwMA"},"resourceType":"Observation","status":"final","subject":{"reference":"Patient/0b3ede79-49be-42b4-961e-a0e99e52b473"},"valueQuantity":{"code":"mg/dL","system":"http://unitsofmeasure.org","unit":"mg/dL","value":122.06984445558302}}},{"resource":{"category":[{"coding":[{"code":"vital-signs","display":"vital-signs","system":"http://hl7.org/fhir/observation-category"}]}],"code":{"coding":[{"code":"55284-4","display":"Blood Pressure","system":"http://loinc.org"}],"text":"Blood Pressure"},"component":[{"code":{"coding":[{"code":"8462-4","display":"Diastolic Blood Pressure","system":"http://loinc.org"}],"text":"Diastolic Blood Pressure"},"valueQuantity":{"code":"mmHg","system":"http://unitsofmeasure.org","unit":"mmHg","value":81.83941075849073}},{"code":{"coding":[{"code":"8480-6","display":"Systolic Blood Pressure","system":"http://loinc.org"}],"text":"Systolic Blood Pressure"},"valueQuantity":{"code":"mmHg","system":"http://unitsofmeasure.org","unit":"mmHg","value":127.02504805167248}}],"context":{"reference":"Encounter/9c589eef-167c-4c05-9369-f235d546e1f1"},"effectiveDateTime":"2002-02-26T12:01:28-05:00","id":"2df6921a-f07b-4ba8-bab6-d251530ba389","issued":"2002-02-26T12:01:28.006-05:00","meta":{"lastUpdated":"2019-04-09T12:04:03.445855+00:00","versionId":"MTU1NDgxMTQ0MzQ0NTg1NTAwMA"},"resourceType":"Observation","status":"final","subject":{"reference":"Patient/0b3ede79-49be-42b4-961e-a0e99e52b473"}}},{"resource":{"category":[{"coding":[{"code":"vital-signs","display":"vital-signs","system":"http://hl7.org/fhir/observation-category"}]}],"code":{"coding":[{"code":"8302-2","display":"Body Height","system":"http://loinc.org"}],"text":"Body Height"},"context":{"reference":"Encounter/2c46a9c2-3d4e-4037-aab1-89910b37c929"},"effectiveDateTime":"1997-08-26T13:01:28-04:00","id":"2f22c22a-53a5-42cf-a848-efa7b54964bd","issued":"1997-08-26T13:01:28.006-04:00","meta":{"lastUpdated":"2019-04-09T12:04:02.403000+00:00","versionId":"MTU1NDgxMTQ0MjQwMzAwMDAwMA"},"resourceType":"Observation","status":"final","subject":{"reference":"Patient/0b3ede79-49be-42b4-961e-a0e99e52b473"},"valueQuantity":{"code":"cm","system":"http://unitsofmeasure.org","unit":"cm","value":185.33988895464805}}},{"resource":{"category":[{"coding":[{"code":"survey","display":"survey","system":"http://hl7.org/fhir/observation-category"}]}],"code":{"coding":[{"code":"72166-2","display":"Tobacco smoking status NHIS","system":"http://loinc.org"}],"text":"Tobacco smoking status NHIS"},"context":{"reference":"Encounter/c4c77f57-0b5f-4c3e-8a2b-66d1190f51cb"},"effectiveDateTime":"1995-08-15T13:01:28-04:00","id":"322ab848-fbaa-4032-8816-af1dfc92dade","issued":"1995-08-15T13:01:28.006-04:00","meta":{"lastUpdated":"2019-04-09T12:04:02.380892+00:00","versionId":"MTU1NDgxMTQ0MjM4MDg5MjAwMA"},"resourceType":"Observation","status":"final","subject":{"reference":"Patient/0b3ede79-49be-42b4-961e-a0e99e52b473"},"valueCodeableConcept":{"coding":[{"code":"8517006","display":"Former smoker","system":"http://snomed.info/sct"}],"text":"Former smoker"}}},{"resource":{"category":[{"coding":[{"code":"vital-signs","display":"vital-signs","system":"http://hl7.org/fhir/observation-category"}]}],"code":{"coding":[{"code":"39156-5","display":"Body Mass Index","system":"http://loinc.org"}],"text":"Body Mass Index"},"context":{"reference":"Encounter/1eea8843-1bd6-4676-b0cd-b386a565660c"},"effectiveDateTime":"2003-03-04T12:01:28-05:00","id":"329c3b71-0c49-46da-99d3-f5d924ff8080","issued":"2003-03-04T12:01:28.006-05:00","meta":{"lastUpdated":"2019-04-09T12:04:03.446686+00:00","versionId":"MTU1NDgxMTQ0MzQ0NjY4NjAwMA"},"resourceType":"Observation","status":"final","subject":{"reference":"Patient/0b3ede79-49be-42b4-961e-a0e99e52b473"},"valueQuantity":{"code":"kg/m2","system":"http://unitsofmeasure.org","unit":"kg/m2","value":22.359833605444965}}},{"resource":{"category":[{"coding":[{"code":"vital-signs","display":"vital-signs","system":"http://hl7.org/fhir/observation-category"}]}],"code":{"coding":[{"code":"55284-4","display":"Blood Pressure","system":"http://loinc.org"}],"text":"Blood Pressure"},"component":[{"code":{"coding":[{"code":"8462-4","display":"Diastolic Blood Pressure","system":"http://loinc.org"}],"text":"Diastolic Blood Pressure"},"valueQuantity":{"code":"mmHg","system":"http://unitsofmeasure.org","unit":"mmHg","value":85.52753497350663}},{"code":{"coding":[{"code":"8480-6","display":"Systolic Blood Pressure","system":"http://loinc.org"}],"text":"Systolic Blood Pressure"},"valueQuantity":{"code":"mmHg","system":"http://unitsofmeasure.org","unit":"mmHg","value":110.56794290758577}}],"context":{"reference":"Encounter/dac7aeb3-11df-4464-b6c9-049e0ca35f8c"},"effectiveDateTime":"1995-06-20T13:01:28-04:00","id":"330fb080-c0c2-4dc7-9e2d-8eddc2f3fb89","issued":"1995-06-20T13:01:28.006-04:00","meta":{"lastUpdated":"2019-04-09T12:04:02.384534+00:00","versionId":"MTU1NDgxMTQ0MjM4NDUzNDAwMA"},"resourceType":"Observation","status":"final","subject":{"reference":"Patient/0b3ede79-49be-42b4-961e-a0e99e52b473"}}},{"resource":{"category":[{"coding":[{"code":"laboratory","display":"laboratory","system":"http://hl7.org/fhir/observation-category"}]}],"code":{"coding":[{"code":"2093-3","display":"Total Cholesterol","system":"http://loinc.org"}],"text":"Total Cholesterol"},"context":{"reference":"Encounter/dac7aeb3-11df-4464-b6c9-049e0ca35f8c"},"effectiveDateTime":"1995-06-20T13:01:28-04:00","id":"37af1645-3f31-41f4-aecb-3ac622012f91","issued":"1995-06-20T13:01:28.006-04:00","meta":{"lastUpdated":"2019-04-09T12:04:02.384535+00:00","versionId":"MTU1NDgxMTQ0MjM4NDUzNTAwMA"},"resourceType":"Observation","status":"final","subject":{"reference":"Patient/0b3ede79-49be-42b4-961e-a0e99e52b473"},"valueQuantity":{"code":"mg/dL","system":"http://unitsofmeasure.org","unit":"mg/dL","value":164.1649295630528}}},{"resource":{"category":[{"coding":[{"code":"laboratory","display":"laboratory","system":"http://hl7.org/fhir/observation-category"}]}],"code":{"coding":[{"code":"785-6","display":"MCH [Entitic mass] by Automated count","system":"http://loinc.org"}],"text":"MCH [Entitic mass] by Automated count"},"context":{"reference":"Encounter/7cbbe40b-7d7f-4fa4-875f-d52cc9d5b648"},"effectiveDateTime":"1996-08-20T13:01:28-04:00","id":"380c44d3-daee-4801-82be-52a058470da9","issued":"1996-08-20T13:01:28.006-04:00","meta":{"lastUpdated":"2019-04-09T12:04:02.393448+00:00","versionId":"MTU1NDgxMTQ0MjM5MzQ0ODAwMA"},"resourceType":"Observation","status":"final","subject":{"reference":"Patient/0b3ede79-49be-42b4-961e-a0e99e52b473"},"valueQuantity":{"code":"pg","system":"http://unitsofmeasure.org","unit":"pg","value":31.06765582461333}}},{"resource":{"category":[{"coding":[{"code":"laboratory","display":"laboratory","system":"http://hl7.org/fhir/observation-category"}]}],"code":{"coding":[{"code":"32623-1","display":"Platelet mean volume [Entitic volume] in Blood by Automated count","system":"http://loinc.org"}],"text":"Platelet mean volume [Entitic volume] in Blood by Automated count"},"context":{"reference":"Encounter/7cbbe40b-7d7f-4fa4-875f-d52cc9d5b648"},"effectiveDateTime":"1996-08-20T13:01:28-04:00","id":"39474eba-3153-4abc-94f9-eb594d73da6b","issued":"1996-08-20T13:01:28.006-04:00","meta":{"lastUpdated":"2019-04-09T12:04:02.387597+00:00","versionId":"MTU1NDgxMTQ0MjM4NzU5NzAwMA"},"resourceType":"Observation","status":"final","subject":{"reference":"Patient/0b3ede79-49be-42b4-961e-a0e99e52b473"},"valueQuantity":{"code":"fL","system":"http://unitsofmeasure.org","unit":"fL","value":11.231190416415032}}},{"resource":{"category":[{"coding":[{"code":"vital-signs","display":"vital-signs","system":"http://hl7.org/fhir/observation-category"}]}],"code":{"coding":[{"code":"29463-7","display":"Body Weight","system":"http://loinc.org"}],"text":"Body Weight"},"context":{"reference":"Encounter/2557a148-bd62-44f1-9ef9-7a3506e6860d"},"effectiveDateTime":"2001-02-20T12:01:28-05:00","id":"3a227956-2bc7-4f3f-9f16-45a6ca249c8e","issued":"2001-02-20T12:01:28.006-05:00","meta":{"lastUpdated":"2019-04-09T12:04:03.446682+00:00","versionId":"MTU1NDgxMTQ0MzQ0NjY4MjAwMA"},"resourceType":"Observation","status":"final","subject":{"reference":"Patient/0b3ede79-49be-42b4-961e-a0e99e52b473"},"valueQuantity":{"code":"kg","system":"http://unitsofmeasure.org","unit":"kg","value":81.59970190744255}}},{"resource":{"category":[{"coding":[{"code":"vital-signs","display":"vital-signs","system":"http://hl7.org/fhir/observation-category"}]}],"code":{"coding":[{"code":"8302-2","display":"Body Height","system":"http://loinc.org"}],"text":"Body Height"},"context":{"reference":"Encounter/dac7aeb3-11df-4464-b6c9-049e0ca35f8c"},"effectiveDateTime":"1995-06-20T13:01:28-04:00","id":"3c28c9f6-5add-480a-a639-2b7caca7ecb5","issued":"1995-06-20T13:01:28.006-04:00","meta":{"lastUpdated":"2019-04-09T12:04:02.384532+00:00","versionId":"MTU1NDgxMTQ0MjM4NDUzMjAwMA"},"resourceType":"Observation","status":"final","subject":{"reference":"Patient/0b3ede79-49be-42b4-961e-a0e99e52b473"},"valueQuantity":{"code":"cm","system":"http://unitsofmeasure.org","unit":"cm","value":185.33988895464805}}},{"resource":{"category":[{"coding":[{"code":"laboratory","display":"laboratory","system":"http://hl7.org/fhir/observation-category"}]}],"code":{"coding":[{"code":"32207-3","display":"Platelet distribution width [Entitic volume] in Blood by Automated count","system":"http://loinc.org"}],"text":"Platelet distribution width [Entitic volume] in Blood by Automated count"},"context":{"reference":"Encounter/9c589eef-167c-4c05-9369-f235d546e1f1"},"effectiveDateTime":"2002-02-26T12:01:28-05:00","id":"42e5aecb-0b88-48d6-abf2-65add306ca7f","issued":"2002-02-26T12:01:28.006-05:00","meta":{"lastUpdated":"2019-04-09T12:04:03.446047+00:00","versionId":"MTU1NDgxMTQ0MzQ0NjA0NzAwMA"},"resourceType":"Observation","status":"final","subject":{"reference":"Patient/0b3ede79-49be-42b4-961e-a0e99e52b473"},"valueQuantity":{"code":"fL","system":"http://unitsofmeasure.org","unit":"fL","value":179.1354495756557}}},{"resource":{"category":[{"coding":[{"code":"exam","display":"exam","system":"http://hl7.org/fhir/observation-category"}]}],"code":{"coding":[{"code":"69453-9","display":"Cause of Death [US Standard Certificate of Death]","system":"http://loinc.org"}],"text":"Cause of Death [US Standard Certificate of Death]"},"context":{"reference":"Encounter/979bd22f-26c4-418f-9c7d-6425f9a0d222"},"effectiveDateTime":"2005-01-25T12:01:28-05:00","id":"4496abd4-a289-4989-9db8-aed728e42b6f","issued":"2005-01-25T12:01:28.006-05:00","meta":{"lastUpdated":"2019-04-09T12:04:03.452588+00:00","versionId":"MTU1NDgxMTQ0MzQ1MjU4ODAwMA"},"resourceType":"Observation","status":"final","subject":{"reference":"Patient/0b3ede79-49be-42b4-961e-a0e99e52b473"},"valueCodeableConcept":{"coding":[{"code":"233604007","display":"Pneumonia","system":"http://snomed.info/sct"}],"text":"Pneumonia"}}},{"resource":{"category":[{"coding":[{"code":"vital-signs","display":"vital-signs","system":"http://hl7.org/fhir/observation-category"}]}],"code":{"coding":[{"code":"39156-5","display":"Body Mass Index","system":"http://loinc.org"}],"text":"Body Mass Index"},"context":{"reference":"Encounter/dac7aeb3-11df-4464-b6c9-049e0ca35f8c"},"effectiveDateTime":"1995-06-20T13:01:28-04:00","id":"45d14b4a-a442-4b47-afb4-399cc79f2104","issued":"1995-06-20T13:01:28.006-04:00","meta":{"lastUpdated":"2019-04-09T12:04:02.384536+00:00","versionId":"MTU1NDgxMTQ0MjM4NDUzNjAwMA"},"resourceType":"Observation","status":"final","subject":{"reference":"Patient/0b3ede79-49be-42b4-961e-a0e99e52b473"},"valueQuantity":{"code":"kg/m2","system":"http://unitsofmeasure.org","unit":"kg/m2","value":25.820726348204097}}},{"resource":{"category":[{"coding":[{"code":"survey","display":"survey","system":"http://hl7.org/fhir/observation-category"}]}],"code":{"coding":[{"code":"72166-2","display":"Tobacco smoking status NHIS","system":"http://loinc.org"}],"text":"Tobacco smoking status NHIS"},"context":{"reference":"Encounter/9c589eef-167c-4c05-9369-f235d546e1f1"},"effectiveDateTime":"2002-02-26T12:01:28-05:00","id":"45fb8e17-433a-44f4-b3a5-8ffb3d81e098","issued":"2002-02-26T12:01:28.006-05:00","meta":{"lastUpdated":"2019-04-09T12:04:03.450790+00:00","versionId":"MTU1NDgxMTQ0MzQ1MDc5MDAwMA"},"resourceType":"Observation","status":"final","subject":{"reference":"Patient/0b3ede79-49be-42b4-961e-a0e99e52b473"},"valueCodeableConcept":{"coding":[{"code":"8517006","display":"Former smoker","system":"http://snomed.info/sct"}],"text":"Former smoker"}}},{"resource":{"category":[{"coding":[{"code":"vital-signs","display":"vital-signs","system":"http://hl7.org/fhir/observation-category"}]}],"code":{"coding":[{"code":"8302-2","display":"Body Height","system":"http://loinc.org"}],"text":"Body Height"},"context":{"reference":"Encounter/7cbbe40b-7d7f-4fa4-875f-d52cc9d5b648"},"effectiveDateTime":"1996-08-20T13:01:28-04:00","id":"45fc179f-771e-4645-9047-a91e5355fcca","issued":"1996-08-20T13:01:28.006-04:00","meta":{"lastUpdated":"2019-04-09T12:04:02.387249+00:00","versionId":"MTU1NDgxMTQ0MjM4NzI0OTAwMA"},"resourceType":"Observation","status":"final","subject":{"reference":"Patient/0b3ede79-49be-42b4-961e-a0e99e52b473"},"valueQuantity":{"code":"cm","system":"http://unitsofmeasure.org","unit":"cm","value":185.33988895464805}}},{"resource":{"category":[{"coding":[{"code":"laboratory","display":"laboratory","system":"http://hl7.org/fhir/observation-category"}]}],"code":{"coding":[{"code":"6690-2","display":"Leukocytes [#/volume] in Blood by Automated count","system":"http://loinc.org"}],"text":"Leukocytes [#/volume] in Blood by Automated count"},"context":{"reference":"Encounter/7cbbe40b-7d7f-4fa4-875f-d52cc9d5b648"},"effectiveDateTime":"1996-08-20T13:01:28-04:00","id":"47035f7b-a693-4f50-842d-281356d97e86","issued":"1996-08-20T13:01:28.006-04:00","meta":{"lastUpdated":"2019-04-09T12:04:02.387332+00:00","versionId":"MTU1NDgxMTQ0MjM4NzMzMjAwMA"},"resourceType":"Observation","status":"final","subject":{"reference":"Patient/0b3ede79-49be-42b4-961e-a0e99e52b473"},"valueQuantity":{"code":"10*3/uL","system":"http://unitsofmeasure.org","unit":"10*3/uL","value":7.753395478508383}}},{"resource":{"category":[{"coding":[{"code":"survey","display":"survey","system":"http://hl7.org/fhir/observation-category"}]}],"code":{"coding":[{"code":"72166-2","display":"Tobacco smoking status NHIS","system":"http://loinc.org"}],"text":"Tobacco smoking status NHIS"},"context":{"reference":"Encounter/2557a148-bd62-44f1-9ef9-7a3506e6860d"},"effectiveDateTime":"2001-02-20T12:01:28-05:00","id":"475eed03-fa8f-4036-8c98-97338a28acef","issued":"2001-02-20T12:01:28.006-05:00","meta":{"lastUpdated":"2019-04-09T12:04:03.446681+00:00","versionId":"MTU1NDgxMTQ0MzQ0NjY4MTAwMA"},"resourceType":"Observation","status":"final","subject":{"reference":"Patient/0b3ede79-49be-42b4-961e-a0e99e52b473"},"valueCodeableConcept":{"coding":[{"code":"8517006","display":"Former smoker","system":"http://snomed.info/sct"}],"text":"Former smoker"}}},{"resource":{"category":[{"coding":[{"code":"vital-signs","display":"vital-signs","system":"http://hl7.org/fhir/observation-category"}]}],"code":{"coding":[{"code":"39156-5","display":"Body Mass Index","system":"http://loinc.org"}],"text":"Body Mass Index"},"context":{"reference":"Encounter/77e27dcf-d706-4596-9db7-628747830ef0"},"effectiveDateTime":"2000-02-15T12:01:28-05:00","id":"49f36323-26f8-48a2-aab6-ba3f2e711999","issued":"2000-02-15T12:01:28.006-05:00","meta":{"lastUpdated":"2019-04-09T12:04:03.442355+00:00","versionId":"MTU1NDgxMTQ0MzQ0MjM1NTAwMA"},"resourceType":"Observation","status":"final","subject":{"reference":"Patient/0b3ede79-49be-42b4-961e-a0e99e52b473"},"valueQuantity":{"code":"kg/m2","system":"http://unitsofmeasure.org","unit":"kg/m2","value":24.298758808877775}}},{"resource":{"category":[{"coding":[{"code":"laboratory","display":"laboratory","system":"http://hl7.org/fhir/observation-category"}]}],"code":{"coding":[{"code":"2085-9","display":"High Density Lipoprotein Cholesterol","system":"http://loinc.org"}],"text":"High Density Lipoprotein Cholesterol"},"context":{"reference":"Encounter/dac7aeb3-11df-4464-b6c9-049e0ca35f8c"},"effectiveDateTime":"1995-06-20T13:01:28-04:00","id":"4ac4e9b7-88b8-4972-ac07-3e335bec8aa6","issued":"1995-06-20T13:01:28.006-04:00","meta":{"lastUpdated":"2019-04-09T12:04:02.374458+00:00","versionId":"MTU1NDgxMTQ0MjM3NDQ1ODAwMA"},"resourceType":"Observation","status":"final","subject":{"reference":"Patient/0b3ede79-49be-42b4-961e-a0e99e52b473"},"valueQuantity":{"code":"mg/dL","system":"http://unitsofmeasure.org","unit":"mg/dL","value":73.36723013586415}}},{"resource":{"category":[{"coding":[{"code":"vital-signs","display":"vital-signs","system":"http://hl7.org/fhir/observation-category"}]}],"code":{"coding":[{"code":"29463-7","display":"Body Weight","system":"http://loinc.org"}],"text":"Body Weight"},"context":{"reference":"Encounter/2c46a9c2-3d4e-4037-aab1-89910b37c929"},"effectiveDateTime":"1997-08-26T13:01:28-04:00","id":"4b1e1a57-25be-4a04-af9f-e5278192f8ee","issued":"1997-08-26T13:01:28.006-04:00","meta":{"lastUpdated":"2019-04-09T12:04:02.402436+00:00","versionId":"MTU1NDgxMTQ0MjQwMjQzNjAwMA"},"resourceType":"Observation","status":"final","subject":{"reference":"Patient/0b3ede79-49be-42b4-961e-a0e99e52b473"},"valueQuantity":{"code":"kg","system":"http://unitsofmeasure.org","unit":"kg","value":85.8399913762837}}},{"resource":{"category":[{"coding":[{"code":"laboratory","display":"laboratory","system":"http://hl7.org/fhir/observation-category"}]}],"code":{"coding":[{"code":"6690-2","display":"Leukocytes [#/volume] in Blood by Automated count","system":"http://loinc.org"}],"text":"Leukocytes [#/volume] in Blood by Automated count"},"context":{"reference":"Encounter/9c589eef-167c-4c05-9369-f235d546e1f1"},"effectiveDateTime":"2002-02-26T12:01:28-05:00","id":"4b507c88-782a-4af2-a590-1a72abacd33d","issued":"2002-02-26T12:01:28.006-05:00","meta":{"lastUpdated":"2019-04-09T12:04:03.445916+00:00","versionId":"MTU1NDgxMTQ0MzQ0NTkxNjAwMA"},"resourceType":"Observation","status":"final","subject":{"reference":"Patient/0b3ede79-49be-42b4-961e-a0e99e52b473"},"valueQuantity":{"code":"10*3/uL","system":"http://unitsofmeasure.org","unit":"10*3/uL","value":6.824774557098098}}},{"resource":{"category":[{"coding":[{"code":"vital-signs","display":"vital-signs","system":"http://hl7.org/fhir/observation-category"}]}],"code":{"coding":[{"code":"39156-5","display":"Body Mass Index","system":"http://loinc.org"}],"text":"Body Mass Index"},"context":{"reference":"Encounter/c87473d8-d9fd-41e3-add3-1b8fea20b3f0"},"effectiveDateTime":"1999-02-09T12:01:28-05:00","id":"4e7cf7e6-6787-4174-aab4-fe71a2033970","issued":"1999-02-09T12:01:28.006-05:00","meta":{"lastUpdated":"2019-04-09T12:04:02.402441+00:00","versionId":"MTU1NDgxMTQ0MjQwMjQ0MTAwMA"},"resourceType":"Observation","status":"final","subject":{"reference":"Patient/0b3ede79-49be-42b4-961e-a0e99e52b473"},"valueQuantity":{"code":"kg/m2","system":"http://unitsofmeasure.org","unit":"kg/m2","value":24.616283619592764}}},{"resource":{"category":[{"coding":[{"code":"vital-signs","display":"vital-signs","system":"http://hl7.org/fhir/observation-category"}]}],"code":{"coding":[{"code":"8331-1","display":"Oral temperature","system":"http://loinc.org"}],"text":"Oral temperature"},"context":{"reference":"Encounter/2cebea59-0f12-442e-86b0-6db1a875b8c2"},"effectiveDateTime":"1998-01-25T12:01:28-05:00","id":"4f0eb364-9342-4056-a20c-2830c05d1914","issued":"1998-01-25T12:01:28.006-05:00","meta":{"lastUpdated":"2019-04-09T12:04:02.420757+00:00","versionId":"MTU1NDgxMTQ0MjQyMDc1NzAwMA"},"resourceType":"Observation","status":"final","subject":{"reference":"Patient/0b3ede79-49be-42b4-961e-a0e99e52b473"},"valueQuantity":{"code":"Cel","system":"http://unitsofmeasure.org","unit":"Cel","value":37.40549106999271}}},{"resource":{"category":[{"coding":[{"code":"vital-signs","display":"vital-signs","system":"http://hl7.org/fhir/observation-category"}]}],"code":{"coding":[{"code":"29463-7","display":"Body Weight","system":"http://loinc.org"}],"text":"Body Weight"},"context":{"reference":"Encounter/7cbbe40b-7d7f-4fa4-875f-d52cc9d5b648"},"effectiveDateTime":"1996-08-20T13:01:28-04:00","id":"56be2cec-99e5-4027-a3f7-3c527ba4a11f","issued":"1996-08-20T13:01:28.006-04:00","meta":{"lastUpdated":"2019-04-09T12:04:02.387247+00:00","versionId":"MTU1NDgxMTQ0MjM4NzI0NzAwMA"},"resourceType":"Observation","status":"final","subject":{"reference":"Patient/0b3ede79-49be-42b4-961e-a0e99e52b473"},"valueQuantity":{"code":"kg","system":"http://unitsofmeasure.org","unit":"kg","value":87.0461542857268}}},{"resource":{"category":[{"coding":[{"code":"vital-signs","display":"vital-signs","system":"http://hl7.org/fhir/observation-category"}]}],"code":{"coding":[{"code":"29463-7","display":"Body Weight","system":"http://loinc.org"}],"text":"Body Weight"},"context":{"reference":"Encounter/dac7aeb3-11df-4464-b6c9-049e0ca35f8c"},"effectiveDateTime":"1995-06-20T13:01:28-04:00","id":"59a405ea-a402-4e18-8e3b-5ddbe1d89ee4","issued":"1995-06-20T13:01:28.006-04:00","meta":{"lastUpdated":"2019-04-09T12:04:02.380886+00:00","versionId":"MTU1NDgxMTQ0MjM4MDg4NjAwMA"},"resourceType":"Observation","status":"final","subject":{"reference":"Patient/0b3ede79-49be-42b4-961e-a0e99e52b473"},"valueQuantity":{"code":"kg","system":"http://unitsofmeasure.org","unit":"kg","value":88.696452867792}}},{"resource":{"category":[{"coding":[{"code":"vital-signs","display":"vital-signs","system":"http://hl7.org/fhir/observation-category"}]}],"code":{"coding":[{"code":"29463-7","display":"Body Weight","system":"http://loinc.org"}],"text":"Body Weight"},"context":{"reference":"Encounter/77e27dcf-d706-4596-9db7-628747830ef0"},"effectiveDateTime":"2000-02-15T12:01:28-05:00","id":"5e500425-39df-4d54-9a81-5b608cff14b8","issued":"2000-02-15T12:01:28.006-05:00","meta":{"lastUpdated":"2019-04-09T12:04:03.452530+00:00","versionId":"MTU1NDgxMTQ0MzQ1MjUzMDAwMA"},"resourceType":"Observation","status":"final","subject":{"reference":"Patient/0b3ede79-49be-42b4-961e-a0e99e52b473"},"valueQuantity":{"code":"kg","system":"http://unitsofmeasure.org","unit":"kg","value":83.4683612836234}}},{"resource":{"category":[{"coding":[{"code":"laboratory","display":"laboratory","system":"http://hl7.org/fhir/observation-category"}]}],"code":{"coding":[{"code":"4544-3","display":"Hematocrit [Volume Fraction] of Blood by Automated count","system":"http://loinc.org"}],"text":"Hematocrit [Volume Fraction] of Blood by Automated count"},"context":{"reference":"Encounter/7cbbe40b-7d7f-4fa4-875f-d52cc9d5b648"},"effectiveDateTime":"1996-08-20T13:01:28-04:00","id":"64ac1779-62aa-4431-9139-ce20b4910a09","issued":"1996-08-20T13:01:28.006-04:00","meta":{"lastUpdated":"2019-04-09T12:04:02.393445+00:00","versionId":"MTU1NDgxMTQ0MjM5MzQ0NTAwMA"},"resourceType":"Observation","status":"final","subject":{"reference":"Patient/0b3ede79-49be-42b4-961e-a0e99e52b473"},"valueQuantity":{"code":"%","system":"http://unitsofmeasure.org","unit":"%","value":43.53290210803849}}},{"resource":{"category":[{"coding":[{"code":"survey","display":"survey","system":"http://hl7.org/fhir/observation-category"}]}],"code":{"coding":[{"code":"72166-2","display":"Tobacco smoking status NHIS","system":"http://loinc.org"}],"text":"Tobacco smoking status NHIS"},"context":{"reference":"Encounter/2c46a9c2-3d4e-4037-aab1-89910b37c929"},"effectiveDateTime":"1997-08-26T13:01:28-04:00","id":"651a3835-058e-486b-900e-c088e510e190","issued":"1997-08-26T13:01:28.006-04:00","meta":{"lastUpdated":"2019-04-09T12:04:02.403001+00:00","versionId":"MTU1NDgxMTQ0MjQwMzAwMTAwMA"},"resourceType":"Observation","status":"final","subject":{"reference":"Patient/0b3ede79-49be-42b4-961e-a0e99e52b473"},"valueCodeableConcept":{"coding":[{"code":"8517006","display":"Former smoker","system":"http://snomed.info/sct"}],"text":"Former smoker"}}},{"resource":{"category":[{"coding":[{"code":"laboratory","display":"laboratory","system":"http://hl7.org/fhir/observation-category"}]}],"code":{"coding":[{"code":"18262-6","display":"Low Density Lipoprotein Cholesterol","system":"http://loinc.org"}],"text":"Low Density Lipoprotein Cholesterol"},"context":{"reference":"Encounter/c87473d8-d9fd-41e3-add3-1b8fea20b3f0"},"effectiveDateTime":"1999-02-09T12:01:28-05:00","id":"657cd7bc-fb89-40b6-bced-e4ea6df72904","issued":"1999-02-09T12:01:28.006-05:00","meta":{"lastUpdated":"2019-04-09T12:04:02.402440+00:00","versionId":"MTU1NDgxMTQ0MjQwMjQ0MDAwMA"},"resourceType":"Observation","status":"final","subject":{"reference":"Patient/0b3ede79-49be-42b4-961e-a0e99e52b473"},"valueQuantity":{"code":"mg/dL","system":"http://unitsofmeasure.org","unit":"mg/dL","value":111.74833160769674}}},{"resource":{"category":[{"coding":[{"code":"vital-signs","display":"vital-signs","system":"http://hl7.org/fhir/observation-category"}]}],"code":{"coding":[{"code":"72514-3","display":"Pain severity - 0-10 verbal numeric rating [Score] - Reported","system":"http://loinc.org"}],"text":"Pain severity - 0-10 verbal numeric rating [Score] - Reported"},"context":{"reference":"Encounter/c87473d8-d9fd-41e3-add3-1b8fea20b3f0"},"effectiveDateTime":"1999-02-09T12:01:28-05:00","id":"68195090-9acf-4dcd-914d-19b42095883e","issued":"1999-02-09T12:01:28.006-05:00","meta":{"lastUpdated":"2019-04-09T12:04:02.402438+00:00","versionId":"MTU1NDgxMTQ0MjQwMjQzODAwMA"},"resourceType":"Observation","status":"final","subject":{"reference":"Patient/0b3ede79-49be-42b4-961e-a0e99e52b473"},"valueQuantity":{"code":"{score}","system":"http://unitsofmeasure.org","unit":"{score}","value":2.629628873313165}}},{"resource":{"category":[{"coding":[{"code":"vital-signs","display":"vital-signs","system":"http://hl7.org/fhir/observation-category"}]}],"code":{"coding":[{"code":"8302-2","display":"Body Height","system":"http://loinc.org"}],"text":"Body Height"},"context":{"reference":"Encounter/c4c77f57-0b5f-4c3e-8a2b-66d1190f51cb"},"effectiveDateTime":"1995-08-15T13:01:28-04:00","id":"6a7e5bfa-62f6-4626-863e-64ba778e3250","issued":"1995-08-15T13:01:28.006-04:00","meta":{"lastUpdated":"2019-04-09T12:04:02.380893+00:00","versionId":"MTU1NDgxMTQ0MjM4MDg5MzAwMA"},"resourceType":"Observation","status":"final","subject":{"reference":"Patient/0b3ede79-49be-42b4-961e-a0e99e52b473"},"valueQuantity":{"code":"cm","system":"http://unitsofmeasure.org","unit":"cm","value":185.33988895464805}}},{"resource":{"category":[{"coding":[{"code":"survey","display":"survey","system":"http://hl7.org/fhir/observation-category"}]}],"code":{"coding":[{"code":"72106-8","display":"Total score [MMSE]","system":"http://loinc.org"}],"text":"Total score [MMSE]"},"context":{"reference":"Encounter/36ab891f-930c-4590-8f17-964eb309405f"},"effectiveDateTime":"2001-04-07T13:01:28-04:00","id":"71fd364e-8887-4829-8531-d0fc91d9cd84","issued":"2001-04-07T13:01:28.006-04:00","meta":{"lastUpdated":"2019-04-09T12:04:03.448684+00:00","versionId":"MTU1NDgxMTQ0MzQ0ODY4NDAwMA"},"resourceType":"Observation","status":"final","subject":{"reference":"Patient/0b3ede79-49be-42b4-961e-a0e99e52b473"},"valueQuantity":{"code":"(score)","system":"http://unitsofmeasure.org","unit":"(score)","value":8.909722763916717}}},{"resource":{"category":[{"coding":[{"code":"laboratory","display":"laboratory","system":"http://hl7.org/fhir/observation-category"}]}],"code":{"coding":[{"code":"2571-8","display":"Triglycerides","system":"http://loinc.org"}],"text":"Triglycerides"},"context":{"reference":"Encounter/9c589eef-167c-4c05-9369-f235d546e1f1"},"effectiveDateTime":"2002-02-26T12:01:28-05:00","id":"72f59838-a5b8-4d05-bf0d-e39c4036a0c7","issued":"2002-02-26T12:01:28.006-05:00","meta":{"lastUpdated":"2019-04-09T12:04:03.445890+00:00","versionId":"MTU1NDgxMTQ0MzQ0NTg5MDAwMA"},"resourceType":"Observation","status":"final","subject":{"reference":"Patient/0b3ede79-49be-42b4-961e-a0e99e52b473"},"valueQuantity":{"code":"mg/dL","system":"http://unitsofmeasure.org","unit":"mg/dL","value":143.65985946472435}}},{"resource":{"category":[{"coding":[{"code":"survey","display":"survey","system":"http://hl7.org/fhir/observation-category"}]}],"code":{"coding":[{"code":"72106-8","display":"Total score [MMSE]","system":"http://loinc.org"}],"text":"Total score [MMSE]"},"context":{"reference":"Encounter/2c46a9c2-3d4e-4037-aab1-89910b37c929"},"effectiveDateTime":"1997-08-26T13:01:28-04:00","id":"77a640d4-947a-4063-99d1-c4cd84164bd9","issued":"1997-08-26T13:01:28.006-04:00","meta":{"lastUpdated":"2019-04-09T12:04:02.411026+00:00","versionId":"MTU1NDgxMTQ0MjQxMTAyNjAwMA"},"resourceType":"Observation","status":"final","subject":{"reference":"Patient/0b3ede79-49be-42b4-961e-a0e99e52b473"},"valueQuantity":{"code":"(score)","system":"http://unitsofmeasure.org","unit":"(score)","value":19.87517649005344}}},{"resource":{"category":[{"coding":[{"code":"vital-signs","display":"vital-signs","system":"http://hl7.org/fhir/observation-category"}]}],"code":{"coding":[{"code":"39156-5","display":"Body Mass Index","system":"http://loinc.org"}],"text":"Body Mass Index"},"context":{"reference":"Encounter/2c46a9c2-3d4e-4037-aab1-89910b37c929"},"effectiveDateTime":"1997-08-26T13:01:28-04:00","id":"78c0455a-90f5-4274-8094-1e137e85688e","issued":"1997-08-26T13:01:28.006-04:00","meta":{"lastUpdated":"2019-04-09T12:04:02.420756+00:00","versionId":"MTU1NDgxMTQ0MjQyMDc1NjAwMA"},"resourceType":"Observation","status":"final","subject":{"reference":"Patient/0b3ede79-49be-42b4-961e-a0e99e52b473"},"valueQuantity":{"code":"kg/m2","system":"http://unitsofmeasure.org","unit":"kg/m2","value":24.98917211901348}}},{"resource":{"category":[{"coding":[{"code":"laboratory","display":"laboratory","system":"http://hl7.org/fhir/observation-category"}]}],"code":{"coding":[{"code":"21000-5","display":"Erythrocyte distribution width [Entitic volume] by Automated count","system":"http://loinc.org"}],"text":"Erythrocyte distribution width [Entitic volume] by Automated count"},"context":{"reference":"Encounter/9c589eef-167c-4c05-9369-f235d546e1f1"},"effectiveDateTime":"2002-02-26T12:01:28-05:00","id":"7ee8699e-f442-4e6d-9b22-6bee9ad41078","issued":"2002-02-26T12:01:28.006-05:00","meta":{"lastUpdated":"2019-04-09T12:04:03.446696+00:00","versionId":"MTU1NDgxMTQ0MzQ0NjY5NjAwMA"},"resourceType":"Observation","status":"final","subject":{"reference":"Patient/0b3ede79-49be-42b4-961e-a0e99e52b473"},"valueQuantity":{"code":"fL","system":"http://unitsofmeasure.org","unit":"fL","value":39.01917904167332}}},{"resource":{"category":[{"coding":[{"code":"laboratory","display":"laboratory","system":"http://hl7.org/fhir/observation-category"}]}],"code":{"coding":[{"code":"785-6","display":"MCH [Entitic mass] by Automated count","system":"http://loinc.org"}],"text":"MCH [Entitic mass] by Automated count"},"context":{"reference":"Encounter/9c589eef-167c-4c05-9369-f235d546e1f1"},"effectiveDateTime":"2002-02-26T12:01:28-05:00","id":"861a80ca-b3dd-4bb8-a287-feb29a0fdeb9","issued":"2002-02-26T12:01:28.006-05:00","meta":{"lastUpdated":"2019-04-09T12:04:03.452584+00:00","versionId":"MTU1NDgxMTQ0MzQ1MjU4NDAwMA"},"resourceType":"Observation","status":"final","subject":{"reference":"Patient/0b3ede79-49be-42b4-961e-a0e99e52b473"},"valueQuantity":{"code":"pg","system":"http://unitsofmeasure.org","unit":"pg","value":29.85378155257286}}},{"resource":{"category":[{"coding":[{"code":"vital-signs","display":"vital-signs","system":"http://hl7.org/fhir/observation-category"}]}],"code":{"coding":[{"code":"8302-2","display":"Body Height","system":"http://loinc.org"}],"text":"Body Height"},"context":{"reference":"Encounter/2557a148-bd62-44f1-9ef9-7a3506e6860d"},"effectiveDateTime":"2001-02-20T12:01:28-05:00","id":"8757f9c1-8421-4a1c-9b1a-018b2a0e739a","issued":"2001-02-20T12:01:28.006-05:00","meta":{"lastUpdated":"2019-04-09T12:04:03.453348+00:00","versionId":"MTU1NDgxMTQ0MzQ1MzM0ODAwMA"},"resourceType":"Observation","status":"final","subject":{"reference":"Patient/0b3ede79-49be-42b4-961e-a0e99e52b473"},"valueQuantity":{"code":"cm","system":"http://unitsofmeasure.org","unit":"cm","value":185.33988895464805}}},{"resource":{"category":[{"coding":[{"code":"vital-signs","display":"vital-signs","system":"http://hl7.org/fhir/observation-category"}]}],"code":{"coding":[{"code":"8302-2","display":"Body Height","system":"http://loinc.org"}],"text":"Body Height"},"context":{"reference":"Encounter/1eea8843-1bd6-4676-b0cd-b386a565660c"},"effectiveDateTime":"2003-03-04T12:01:28-05:00","id":"87b45e79-3185-4ee4-863c-64360b06e093","issued":"2003-03-04T12:01:28.006-05:00","meta":{"lastUpdated":"2019-04-09T12:04:03.443787+00:00","versionId":"MTU1NDgxMTQ0MzQ0Mzc4NzAwMA"},"resourceType":"Observation","status":"final","subject":{"reference":"Patient/0b3ede79-49be-42b4-961e-a0e99e52b473"},"valueQuantity":{"code":"cm","system":"http://unitsofmeasure.org","unit":"cm","value":185.33988895464805}}},{"resource":{"category":[{"coding":[{"code":"vital-signs","display":"vital-signs","system":"http://hl7.org/fhir/observation-category"}]}],"code":{"coding":[{"code":"8302-2","display":"Body Height","system":"http://loinc.org"}],"text":"Body Height"},"context":{"reference":"Encounter/053ba532-93c5-45ee-80d4-11decb2a6b2c"},"effectiveDateTime":"2004-03-09T12:01:28-05:00","id":"8c36ba70-2378-438e-8b4e-70ad51b42b3b","issued":"2004-03-09T12:01:28.006-05:00","meta":{"lastUpdated":"2019-04-09T12:04:03.460557+00:00","versionId":"MTU1NDgxMTQ0MzQ2MDU1NzAwMA"},"resourceType":"Observation","status":"final","subject":{"reference":"Patient/0b3ede79-49be-42b4-961e-a0e99e52b473"},"valueQuantity":{"code":"cm","system":"http://unitsofmeasure.org","unit":"cm","value":185.33988895464805}}},{"resource":{"category":[{"coding":[{"code":"laboratory","display":"laboratory","system":"http://hl7.org/fhir/observation-category"}]}],"code":{"coding":[{"code":"18262-6","display":"Low Density Lipoprotein Cholesterol","system":"http://loinc.org"}],"text":"Low Density Lipoprotein Cholesterol"},"context":{"reference":"Encounter/dac7aeb3-11df-4464-b6c9-049e0ca35f8c"},"effectiveDateTime":"1995-06-20T13:01:28-04:00","id":"8c9a036d-36fe-4be7-9d45-e8d168b1dd35","issued":"1995-06-20T13:01:28.006-04:00","meta":{"lastUpdated":"2019-04-09T12:04:02.380887+00:00","versionId":"MTU1NDgxMTQ0MjM4MDg4NzAwMA"},"resourceType":"Observation","status":"final","subject":{"reference":"Patient/0b3ede79-49be-42b4-961e-a0e99e52b473"},"valueQuantity":{"code":"mg/dL","system":"http://unitsofmeasure.org","unit":"mg/dL","value":63.89675340254195}}},{"resource":{"category":[{"coding":[{"code":"laboratory","display":"laboratory","system":"http://hl7.org/fhir/observation-category"}]}],"code":{"coding":[{"code":"2093-3","display":"Total Cholesterol","system":"http://loinc.org"}],"text":"Total Cholesterol"},"context":{"reference":"Encounter/9c589eef-167c-4c05-9369-f235d546e1f1"},"effectiveDateTime":"2002-02-26T12:01:28-05:00","id":"8fc0fa28-6a26-4ee9-9e2f-a3d7dc85fd06","issued":"2002-02-26T12:01:28.006-05:00","meta":{"lastUpdated":"2019-04-09T12:04:03.445820+00:00","versionId":"MTU1NDgxMTQ0MzQ0NTgyMDAwMA"},"resourceType":"Observation","status":"final","subject":{"reference":"Patient/0b3ede79-49be-42b4-961e-a0e99e52b473"},"valueQuantity":{"code":"mg/dL","system":"http://unitsofmeasure.org","unit":"mg/dL","value":182.7895912418607}}},{"resource":{"category":[{"coding":[{"code":"laboratory","display":"laboratory","system":"http://hl7.org/fhir/observation-category"}]}],"code":{"coding":[{"code":"4544-3","display":"Hematocrit [Volume Fraction] of Blood by Automated count","system":"http://loinc.org"}],"text":"Hematocrit [Volume Fraction] of Blood by Automated count"},"context":{"reference":"Encounter/9c589eef-167c-4c05-9369-f235d546e1f1"},"effectiveDateTime":"2002-02-26T12:01:28-05:00","id":"928cb2d3-4e0c-40d5-b732-a2e0e681af1e","issued":"2002-02-26T12:01:28.006-05:00","meta":{"lastUpdated":"2019-04-09T12:04:03.451103+00:00","versionId":"MTU1NDgxMTQ0MzQ1MTEwMzAwMA"},"resourceType":"Observation","status":"final","subject":{"reference":"Patient/0b3ede79-49be-42b4-961e-a0e99e52b473"},"valueQuantity":{"code":"%","system":"http://unitsofmeasure.org","unit":"%","value":42.49399601822202}}},{"resource":{"category":[{"coding":[{"code":"laboratory","display":"laboratory","system":"http://hl7.org/fhir/observation-category"}]}],"code":{"coding":[{"code":"57905-2","display":"Hemoglobin.gastrointestinal [Presence] in Stool by Immunologic method","system":"http://loinc.org"}],"text":"Hemoglobin.gastrointestinal [Presence] in Stool by Immunologic method"},"context":{"reference":"Encounter/51fc553a-2b5f-4eb0-9637-c6f8b9af6d3a"},"effectiveDateTime":"2000-03-09T12:01:28-05:00","id":"9799550e-e338-4e5e-ac91-441386760ba4","issued":"2000-03-09T12:01:28.006-05:00","meta":{"lastUpdated":"2019-04-09T12:04:03.442259+00:00","versionId":"MTU1NDgxMTQ0MzQ0MjI1OTAwMA"},"resourceType":"Observation","status":"final","subject":{"reference":"Patient/0b3ede79-49be-42b4-961e-a0e99e52b473"},"valueQuantity":{"code":"ng/mL","system":"http://unitsofmeasure.org","unit":"ng/mL","value":23.355049022160355}}},{"resource":{"category":[{"coding":[{"code":"vital-signs","display":"vital-signs","system":"http://hl7.org/fhir/observation-category"}]}],"code":{"coding":[{"code":"55284-4","display":"Blood Pressure","system":"http://loinc.org"}],"text":"Blood Pressure"},"component":[{"code":{"coding":[{"code":"8462-4","display":"Diastolic Blood Pressure","system":"http://loinc.org"}],"text":"Diastolic Blood Pressure"},"valueQuantity":{"code":"mmHg","system":"http://unitsofmeasure.org","unit":"mmHg","value":74.91909050062024}},{"code":{"coding":[{"code":"8480-6","display":"Systolic Blood Pressure","system":"http://loinc.org"}],"text":"Systolic Blood Pressure"},"valueQuantity":{"code":"mmHg","system":"http://unitsofmeasure.org","unit":"mmHg","value":125.3326002124818}}],"context":{"reference":"Encounter/77e27dcf-d706-4596-9db7-628747830ef0"},"effectiveDateTime":"2000-02-15T12:01:28-05:00","id":"97c9bbe8-86de-47fe-b900-03936ac2e687","issued":"2000-02-15T12:01:28.006-05:00","meta":{"lastUpdated":"2019-04-09T12:04:03.446675+00:00","versionId":"MTU1NDgxMTQ0MzQ0NjY3NTAwMA"},"resourceType":"Observation","status":"final","subject":{"reference":"Patient/0b3ede79-49be-42b4-961e-a0e99e52b473"}}},{"resource":{"category":[{"coding":[{"code":"vital-signs","display":"vital-signs","system":"http://hl7.org/fhir/observation-category"}]}],"code":{"coding":[{"code":"72514-3","display":"Pain severity - 0-10 verbal numeric rating [Score] - Reported","system":"http://loinc.org"}],"text":"Pain severity - 0-10 verbal numeric rating [Score] - Reported"},"context":{"reference":"Encounter/77e27dcf-d706-4596-9db7-628747830ef0"},"effectiveDateTime":"2000-02-15T12:01:28-05:00","id":"99c90ddd-664f-4e3f-ae76-3859582450e7","issued":"2000-02-15T12:01:28.006-05:00","meta":{"lastUpdated":"2019-04-09T12:04:03.446677+00:00","versionId":"MTU1NDgxMTQ0MzQ0NjY3NzAwMA"},"resourceType":"Observation","status":"final","subject":{"reference":"Patient/0b3ede79-49be-42b4-961e-a0e99e52b473"},"valueQuantity":{"code":"{score}","system":"http://unitsofmeasure.org","unit":"{score}","value":3.49039281931891}}},{"resource":{"category":[{"coding":[{"code":"vital-signs","display":"vital-signs","system":"http://hl7.org/fhir/observation-category"}]}],"code":{"coding":[{"code":"72514-3","display":"Pain severity - 0-10 verbal numeric rating [Score] - Reported","system":"http://loinc.org"}],"text":"Pain severity - 0-10 verbal numeric rating [Score] - Reported"},"context":{"reference":"Encounter/7cbbe40b-7d7f-4fa4-875f-d52cc9d5b648"},"effectiveDateTime":"1996-08-20T13:01:28-04:00","id":"9c7170cf-7580-4823-951f-50933c907cdb","issued":"1996-08-20T13:01:28.006-04:00","meta":{"lastUpdated":"2019-04-09T12:04:02.393444+00:00","versionId":"MTU1NDgxMTQ0MjM5MzQ0NDAwMA"},"resourceType":"Observation","status":"final","subject":{"reference":"Patient/0b3ede79-49be-42b4-961e-a0e99e52b473"},"valueQuantity":{"code":"{score}","system":"http://unitsofmeasure.org","unit":"{score}","value":0.6030070031968235}}},{"resource":{"category":[{"coding":[{"code":"vital-signs","display":"vital-signs","system":"http://hl7.org/fhir/observation-category"}]}],"code":{"coding":[{"code":"39156-5","display":"Body Mass Index","system":"http://loinc.org"}],"text":"Body Mass Index"},"context":{"reference":"Encounter/053ba532-93c5-45ee-80d4-11decb2a6b2c"},"effectiveDateTime":"2004-03-09T12:01:28-05:00","id":"a041bdc7-ee55-40a4-b0cf-a714ebec059b","issued":"2004-03-09T12:01:28.006-05:00","meta":{"lastUpdated":"2019-04-09T12:04:03.453616+00:00","versionId":"MTU1NDgxMTQ0MzQ1MzYxNjAwMA"},"resourceType":"Observation","status":"final","subject":{"reference":"Patient/0b3ede79-49be-42b4-961e-a0e99e52b473"},"valueQuantity":{"code":"kg/m2","system":"http://unitsofmeasure.org","unit":"kg/m2","value":21.829029007082674}}},{"resource":{"category":[{"coding":[{"code":"procedure","display":"procedure","system":"http://hl7.org/fhir/observation-category"}]}],"code":{"coding":[{"code":"33756-8","display":"Polyp size greatest dimension by CAP cancer protocols","system":"http://loinc.org"}],"text":"Polyp size greatest dimension by CAP cancer protocols"},"context":{"reference":"Encounter/51fc553a-2b5f-4eb0-9637-c6f8b9af6d3a"},"effectiveDateTime":"2000-03-09T12:01:28-05:00","id":"a5066391-0ba3-4510-af91-dfded6feb7dd","issued":"2000-03-09T12:01:28.006-05:00","meta":{"lastUpdated":"2019-04-09T12:04:03.446672+00:00","versionId":"MTU1NDgxMTQ0MzQ0NjY3MjAwMA"},"resourceType":"Observation","status":"final","subject":{"reference":"Patient/0b3ede79-49be-42b4-961e-a0e99e52b473"},"valueQuantity":{"code":"mm","system":"http://unitsofmeasure.org","unit":"mm","value":3.245213170782688}}},{"resource":{"category":[{"coding":[{"code":"vital-signs","display":"vital-signs","system":"http://hl7.org/fhir/observation-category"}]}],"code":{"coding":[{"code":"8302-2","display":"Body Height","system":"http://loinc.org"}],"text":"Body Height"},"context":{"reference":"Encounter/bc5202fe-0320-418f-8829-0f345b2b8c1c"},"effectiveDateTime":"1998-02-03T12:01:28-05:00","id":"a6b28ed4-dc08-4ffd-bb35-f09b801de324","issued":"1998-02-03T12:01:28.006-05:00","meta":{"lastUpdated":"2019-04-09T12:04:02.414597+00:00","versionId":"MTU1NDgxMTQ0MjQxNDU5NzAwMA"},"resourceType":"Observation","status":"final","subject":{"reference":"Patient/0b3ede79-49be-42b4-961e-a0e99e52b473"},"valueQuantity":{"code":"cm","system":"http://unitsofmeasure.org","unit":"cm","value":185.33988895464805}}}],"link":[{"url":"https://syntheticmass.mitre.org/v1/fhir/Patient/0b3ede79-49be-42b4-961e-a0e99e52b473/$everything?_count=100&page_token=CoIBcHJvamVjdHMvc3ludGhlYS9sb2NhdGlvbnMvdXMtY2VudHJhbDEvZGF0YXNldHMvMjAxOTAyL2ZoaXJTdG9yZXMvc3ludGhldGljLW1hc3MvZmhpci9QYXRpZW50LzBiM2VkZTc5LTQ5YmUtNDJiNC05NjFlLWEwZTk5ZTUyYjQ3Mw%3D%3D","relation":"previous"},{"url":"https://syntheticmass.mitre.org/v1/fhir/Patient/0b3ede79-49be-42b4-961e-a0e99e52b473/$everything?_count=100&page_token=CoIBcHJvamVjdHMvc3ludGhlYS9sb2NhdGlvbnMvdXMtY2VudHJhbDEvZGF0YXNldHMvMjAxOTAyL2ZoaXJTdG9yZXMvc3ludGhldGljLW1hc3MvZmhpci9QYXRpZW50LzBiM2VkZTc5LTQ5YmUtNDJiNC05NjFlLWEwZTk5ZTUyYjQ3MyDIAQ%3D%3D","relation":"next"}],"total":245}
