{"resourceType":"Bundle","type":"searchset","entry":[{"resource":{"billablePeriod":{"end":"2015-01-31T08:31:08-05:00","extension":[{"url":"https://bluebutton.cms.gov/assets/ig/StructureDefinition-bluebutton-inpatient-claim-query-cd-extension","valueCoding":{"code":"3","display":"Final Bill","system":"https://bluebutton.cms.gov/assets/ig/ValueSet-claim-query-cd"}}],"start":"2014-01-31T08:31:08-05:00"},"careTeam":[{"provider":{"identifier":{"system":"http://hl7.org/fhir/sid/us-npi","value":"99999999"}},"role":{"coding":[{"code":"primary","display":"Primary Care Practitioner","system":"http://hl7.org/fhir/claimcareteamrole"}]},"sequence":1}],"contained":[{"id":"coverage","resourceType":"Coverage","type":{"text":"private"}}],"extension":[{"url":"https://bluebutton.cms.gov/assets/ig/StructureDefinition-bluebutton-inpatient-ime-op-clm-val-amt-extension","valueMoney":{"code":"USD","system":"urn:iso:std:iso:4217","value":400}},{"url":"https://bluebutton.cms.gov/assets/ig/StructureDefinition-bluebutton-inpatient-dsh-op-clm-val-amt-extension","valueMoney":{"code":"USD","system":"urn:iso:std:iso:4217","value":0}},{"url":"https://bluebutton.cms.gov/assets/ig/StructureDefinition-bluebutton-inpatient-clm-pass-thru-per-diem-amt-extension","valueMoney":{"code":"USD","system":"urn:iso:std:iso:4217","value":0}},{"url":"https://bluebutton.cms.gov/assets/ig/StructureDefinition-bluebutton-inpatient-nch-profnl-cmpnt-chrg-amt-extension","valueMoney":{"code":"USD","system":"urn:iso:std:iso:4217","value":0}},{"url":"https://bluebutton.cms.gov/assets/ig/StructureDefinition-bluebutton-inpatient-clm-tot-pps-cptl-amt-extension","valueMoney":{"code":"USD","system":"urn:iso:std:iso:4217","value":0}},{"url":"https://bluebutton.cms.gov/assets/ig/StructureDefinition-bluebutton-inpatient-nch-bene-ip-ddctbl-amt-extension","valueMoney":{"code":"USD","system":"urn:iso:std:iso:4217","value":0}},{"url":"https://bluebutton.cms.gov/assets/ig/StructureDefinition-bluebutton-inpatient-nch-bene-pta-coinsrnc-lblty-amt-extension","valueMoney":{"code":"USD","system":"urn:iso:std:iso:4217","value":0}},{"url":"https://bluebutton.cms.gov/assets/ig/StructureDefinition-bluebutton-inpatient-nch-ip-ncvrd-chrg-amt-extension","valueMoney":{"code":"USD","system":"urn:iso:std:iso:4217","value":0}},{"url":"https://bluebutton.cms.gov/assets/ig/StructureDefinition-bluebutton-inpatient-nch-ip-tot-ddctn-amt-extension","valueMoney":{"code":"USD","system":"urn:iso:std:iso:4217","value":0}},{"url":"https://bluebutton.cms.gov/assets/ig/StructureDefinition-bluebutton-inpatient-clm-pps-cptl-dsprprtnt-shr-amt-extension","valueMoney":{"code":"USD","system":"urn:iso:std:iso:4217","value":0}},{"url":"https://bluebutton.cms.gov/assets/ig/StructureDefinition-bluebutton-inpatient-clm-pps-cptl-excptn-amt-extension","valueMoney":{"code":"USD","system":"urn:iso:std:iso:4217","value":0}},{"url":"https://bluebutton.cms.gov/assets/ig/StructureDefinition-bluebutton-inpatient-clm-pps-cptl-fsp-amt-extension","valueMoney":{"code":"USD","system":"urn:iso:std:iso:4217","value":0}},{"url":"https://bluebutton.cms.gov/assets/ig/StructureDefinition-bluebutton-inpatient-clm-pps-cptl-ime-amt-extension","valueMoney":{"code":"USD","system":"urn:iso:std:iso:4217","value":400}},{"url":"https://bluebutton.cms.gov/assets/ig/StructureDefinition-bluebutton-inpatient-clm-pps-cptl-outlier-amt-extension","valueMoney":{"code":"USD","system":"urn:iso:std:iso:4217","value":0}},{"url":"https://bluebutton.cms.gov/assets/ig/StructureDefinition-bluebutton-inpatient-clm-pps-old-cptl-hld-hrmls-amt-extension","valueMoney":{"code":"USD","system":"urn:iso:std:iso:4217","value":0}},{"url":"https://bluebutton.cms.gov/assets/ig/StructureDefinition-bluebutton-inpatient-nch-drg-outlier-aprvd-pmt-amt-extension","valueMoney":{"code":"USD","system":"urn:iso:std:iso:4217","value":0}},{"url":"https://bluebutton.cms.gov/assets/ig/StructureDefinition-bluebutton-inpatient-nch-bene-blood-ddctbl-lblty-am-extension","valueMoney":{"code":"USD","system":"urn:iso:std:iso:4217","value":0}},{"url":"https://bluebutton.cms.gov/assets/ig/StructureDefinition-bluebutton-inpatient-clm-mdcr-non-pmt-rsn-cd-extension","valueCoding":{"code":"N","display":"All other reasons for non-payment","system":"https://bluebutton.cms.gov/assets/ig/CodeSystem-clm-mdcr-non-pmt-rsn-cd"}},{"url":"https://bluebutton.cms.gov/assets/ig/StructureDefinition-bluebutton-inpatient-prpayamt-extension","valueMoney":{"code":"USD","system":"urn:iso:std:iso:4217","value":0}},{"url":"https://bluebutton.cms.gov/assets/ig/StructureDefinition-bluebutton-inpatient-fi-num-extension","valueIdentifier":{"system":"https://bluebutton.cms.gov/assets/ig/CodeSystem-fi-num","value":"002000"}}],"id":"c7b581f8-3bc8-4425-969f-c7ee8a72b2ed","identifier":[{"system":"https://bluebutton.cms.gov/resources/variables/clm_id","value":"c32dd1ad-8b75-4164-a61e-d35593e9b0e1"},{"system":"https://bluebutton.cms.gov/resources/identifier/claim-group","value":"99999999999"}],"insurance":{"coverage":{"reference":"#coverage"}},"item":[{"extension":[{"url":"https://bluebutton.cms.gov/assets/ig/StructureDefinition-bluebutton-inpatient-rev-cntr-ndc-qty-extension","valueQuantity":{"value":0}}],"locationCodeableConcept":{"coding":[{"code":"21","display":"Inpatient Hospital","system":"https://bluebutton.cms.gov/resources/variables/line_place_of_srvc_cd"}]},"sequence":1},{"adjudication":[{"amount":{"code":"USD","system":"urn:iso:std:iso:4217","value":2977.9860000000003},"category":{"coding":[{"code":"https://bluebutton.cms.gov/resources/variables/line_coinsrnc_amt","display":"Line Beneficiary Coinsurance Amount","system":"https://bluebutton.cms.gov/resources/codesystem/adjudication"}]}},{"amount":{"code":"USD","system":"urn:iso:std:iso:4217","value":11911.944000000001},"category":{"coding":[{"code":"https://bluebutton.cms.gov/resources/variables/line_prvdr_pmt_amt","display":"Line Provider Payment Amount","system":"https://bluebutton.cms.gov/resources/codesystem/adjudication"}]}},{"amount":{"code":"USD","system":"urn:iso:std:iso:4217","value":14889.93},"category":{"coding":[{"code":"https://bluebutton.cms.gov/resources/variables/line_sbmtd_chrg_amt","display":"Line Submitted Charge Amount","system":"https://bluebutton.cms.gov/resources/codesystem/adjudication"}]}},{"amount":{"code":"USD","system":"urn:iso:std:iso:4217","value":14889.93},"category":{"coding":[{"code":"https://bluebutton.cms.gov/resources/variables/line_alowd_chrg_amt","display":"Line Allowed Charge Amount","system":"https://bluebutton.cms.gov/resources/codesystem/adjudication"}]}},{"amount":{"code":"USD","system":"urn:iso:std:iso:4217","value":0},"category":{"coding":[{"code":"https://bluebutton.cms.gov/resources/variables/line_bene_ptb_ddctbl_amt","display":"Line Beneficiary Part B Deductible Amount","system":"https://bluebutton.cms.gov/resources/codesystem/adjudication"}]}},{"category":{"coding":[{"code":"https://bluebutton.cms.gov/resources/variables/line_prcsg_ind_cd","display":"Line Processing Indicator Code","system":"https://bluebutton.cms.gov/resources/codesystem/adjudication"}]}}],"extension":[{"url":"https://bluebutton.cms.gov/assets/ig/StructureDefinition-bluebutton-inpatient-rev-cntr-ndc-qty-extension","valueQuantity":{"value":0}}],"locationCodeableConcept":{"coding":[{"code":"21","display":"Inpatient Hospital","system":"https://bluebutton.cms.gov/resources/variables/line_place_of_srvc_cd"}]},"sequence":2,"service":{"coding":[{"code":"228557008","system":"http://snomed.info/sct","version":"v1"}]}}],"meta":{"lastUpdated":"2019-04-09T12:03:19.707099+00:00","profile":["https://bluebutton.cms.gov/assets/ig/StructureDefinition-bluebutton-inpatient-claim"],"versionId":"MTU1NDgxMTM5OTcwNzA5OTAwMA"},"organization":{"identifier":{"value":"4d5efb94-acd6-42fa-afdc-e1d894a0a2f7"}},"patient":{"reference":"Patient/0b1c606e-6cbd-4103-b535-6c3d7e9940b4"},"payment":{"amount":{"code":"USD","system":"urn:iso:std:iso:4217","value":11911.944000000001}},"provider":{"identifier":{"value":"b42f2bac-f12b-418d-abb7-03cbcba2919f"}},"resourceType":"ExplanationOfBenefit","status":"active","totalCost":{"code":"USD","system":"urn:iso:std:iso:4217","value":15014.93},"type":{"coding":[{"code":"71","display":"Local carrier non-durable medical equipment, prosthetics, orthotics, and supplies (DMEPOS) claim","system":"https://bluebutton.cms.gov/resources/variables/nch_clm_type_cd"},{"code":"CARRIER","display":"EOB Type","system":"https://bluebutton.cms.gov/resources/codesystem/eob-type"},{"code":"professional","display":"Claim Type","system":"http://hl7.org/fhir/ex-claimtype"},{"code":"O","display":"Part B physician/supplier claim record (processed by local carriers; can include DMEPOS services)","system":"https://bluebutton.cms.gov/resources/variables/nch_near_line_rec_ident_cd"}]}}},{"resource":{"billablePeriod":{"end":"2014-05-31T09:31:08-04:00","extension":[{"url":"https://bluebutton.cms.gov/assets/ig/StructureDefinition-bluebutton-inpatient-claim-query-cd-extension","valueCoding":{"code":"3","display":"Final Bill","system":"https://bluebutton.cms.gov/assets/ig/ValueSet-claim-query-cd"}}],"start":"2013-05-31T09:31:08-04:00"},"careTeam":[{"provider":{"identifier":{"system":"http://hl7.org/fhir/sid/us-npi","value":"99999999"}},"role":{"coding":[{"code":"primary","display":"Primary Care Practitioner","system":"http://hl7.org/fhir/claimcareteamrole"}]},"sequence":1}],"contained":[{"id":"coverage","resourceType":"Coverage","type":{"text":"private"}}],"extension":[{"url":"https://bluebutton.cms.gov/assets/ig/StructureDefinition-bluebutton-inpatient-ime-op-clm-val-amt-extension","valueMoney":{"code":"USD","system":"urn:iso:std:iso:4217","value":400}},{"url":"https://bluebutton.cms.gov/assets/ig/StructureDefinition-bluebutton-inpatient-dsh-op-clm-val-amt-extension","valueMoney":{"code":"USD","system":"urn:iso:std:iso:4217","value":0}},{"url":"https://bluebutton.cms.gov/assets/ig/StructureDefinition-bluebutton-inpatient-clm-pass-thru-per-diem-amt-extension","valueMoney":{"code":"USD","system":"urn:iso:std:iso:4217","value":0}},{"url":"https://bluebutton.cms.gov/assets/ig/StructureDefinition-bluebutton-inpatient-nch-profnl-cmpnt-chrg-amt-extension","valueMoney":{"code":"USD","system":"urn:iso:std:iso:4217","value":0}},{"url":"https://bluebutton.cms.gov/assets/ig/StructureDefinition-bluebutton-inpatient-clm-tot-pps-cptl-amt-extension","valueMoney":{"code":"USD","system":"urn:iso:std:iso:4217","value":0}},{"url":"https://bluebutton.cms.gov/assets/ig/StructureDefinition-bluebutton-inpatient-nch-bene-ip-ddctbl-amt-extension","valueMoney":{"code":"USD","system":"urn:iso:std:iso:4217","value":0}},{"url":"https://bluebutton.cms.gov/assets/ig/StructureDefinition-bluebutton-inpatient-nch-bene-pta-coinsrnc-lblty-amt-extension","valueMoney":{"code":"USD","system":"urn:iso:std:iso:4217","value":0}},{"url":"https://bluebutton.cms.gov/assets/ig/StructureDefinition-bluebutton-inpatient-nch-ip-ncvrd-chrg-amt-extension","valueMoney":{"code":"USD","system":"urn:iso:std:iso:4217","value":0}},{"url":"https://bluebutton.cms.gov/assets/ig/StructureDefinition-bluebutton-inpatient-nch-ip-tot-ddctn-amt-extension","valueMoney":{"code":"USD","system":"urn:iso:std:iso:4217","value":0}},{"url":"https://bluebutton.cms.gov/assets/ig/StructureDefinition-bluebutton-inpatient-clm-pps-cptl-dsprprtnt-shr-amt-extension","valueMoney":{"code":"USD","system":"urn:iso:std:iso:4217","value":0}},{"url":"https://bluebutton.cms.gov/assets/ig/StructureDefinition-bluebutton-inpatient-clm-pps-cptl-excptn-amt-extension","valueMoney":{"code":"USD","system":"urn:iso:std:iso:4217","value":0}},{"url":"https://bluebutton.cms.gov/assets/ig/StructureDefinition-bluebutton-inpatient-clm-pps-cptl-fsp-amt-extension","valueMoney":{"code":"USD","system":"urn:iso:std:iso:4217","value":0}},{"url":"https://bluebutton.cms.gov/assets/ig/StructureDefinition-bluebutton-inpatient-clm-pps-cptl-ime-amt-extension","valueMoney":{"code":"USD","system":"urn:iso:std:iso:4217","value":400}},{"url":"https://bluebutton.cms.gov/assets/ig/StructureDefinition-bluebutton-inpatient-clm-pps-cptl-outlier-amt-extension","valueMoney":{"code":"USD","system":"urn:iso:std:iso:4217","value":0}},{"url":"https://bluebutton.cms.gov/assets/ig/StructureDefinition-bluebutton-inpatient-clm-pps-old-cptl-hld-hrmls-amt-extension","valueMoney":{"code":"USD","system":"urn:iso:std:iso:4217","value":0}},{"url":"https://bluebutton.cms.gov/assets/ig/StructureDefinition-bluebutton-inpatient-nch-drg-outlier-aprvd-pmt-amt-extension","valueMoney":{"code":"USD","system":"urn:iso:std:iso:4217","value":0}},{"url":"https://bluebutton.cms.gov/assets/ig/StructureDefinition-bluebutton-inpatient-nch-bene-blood-ddctbl-lblty-am-extension","valueMoney":{"code":"USD","system":"urn:iso:std:iso:4217","value":0}},{"url":"https://bluebutton.cms.gov/assets/ig/StructureDefinition-bluebutton-inpatient-clm-mdcr-non-pmt-rsn-cd-extension","valueCoding":{"code":"N","display":"All other reasons for non-payment","system":"https://bluebutton.cms.gov/assets/ig/CodeSystem-clm-mdcr-non-pmt-rsn-cd"}},{"url":"https://bluebutton.cms.gov/assets/ig/StructureDefinition-bluebutton-inpatient-prpayamt-extension","valueMoney":{"code":"USD","system":"urn:iso:std:iso:4217","value":0}},{"url":"https://bluebutton.cms.gov/assets/ig/StructureDefinition-bluebutton-inpatient-fi-num-extension","valueIdentifier":{"system":"https://bluebutton.cms.gov/assets/ig/CodeSystem-fi-num","value":"002000"}}],"id":"c92473f4-6e7d-46d4-a34d-fa07e57a1f3c","identifier":[{"system":"https://bluebutton.cms.gov/resources/variables/clm_id","value":"28cd89bd-f49d-469b-b353-1f01cf843a3b"},{"system":"https://bluebutton.cms.gov/resources/identifier/claim-group","value":"99999999999"}],"insurance":{"coverage":{"reference":"#coverage"}},"item":[{"extension":[{"url":"https://bluebutton.cms.gov/assets/ig/StructureDefinition-bluebutton-inpatient-rev-cntr-ndc-qty-extension","valueQuantity":{"value":0}}],"locationCodeableConcept":{"coding":[{"code":"21","display":"Inpatient Hospital","system":"https://bluebutton.cms.gov/resources/variables/line_place_of_srvc_cd"}]},"sequence":1},{"adjudication":[{"amount":{"code":"USD","system":"urn:iso:std:iso:4217","value":2118.1040000000003},"category":{"coding":[{"code":"https://bluebutton.cms.gov/resources/variables/line_coinsrnc_amt","display":"Line Beneficiary Coinsurance Amount","system":"https://bluebutton.cms.gov/resources/codesystem/adjudication"}]}},{"amount":{"code":"USD","system":"urn:iso:std:iso:4217","value":8472.416000000001},"category":{"coding":[{"code":"https://bluebutton.cms.gov/resources/variables/line_prvdr_pmt_amt","display":"Line Provider Payment Amount","system":"https://bluebutton.cms.gov/resources/codesystem/adjudication"}]}},{"amount":{"code":"USD","system":"urn:iso:std:iso:4217","value":10590.52},"category":{"coding":[{"code":"https://bluebutton.cms.gov/resources/variables/line_sbmtd_chrg_amt","display":"Line Submitted Charge Amount","system":"https://bluebutton.cms.gov/resources/codesystem/adjudication"}]}},{"amount":{"code":"USD","system":"urn:iso:std:iso:4217","value":10590.52},"category":{"coding":[{"code":"https://bluebutton.cms.gov/resources/variables/line_alowd_chrg_amt","display":"Line Allowed Charge Amount","system":"https://bluebutton.cms.gov/resources/codesystem/adjudication"}]}},{"amount":{"code":"USD","system":"urn:iso:std:iso:4217","value":0},"category":{"coding":[{"code":"https://bluebutton.cms.gov/resources/variables/line_bene_ptb_ddctbl_amt","display":"Line Beneficiary Part B Deductible Amount","system":"https://bluebutton.cms.gov/resources/codesystem/adjudication"}]}},{"category":{"coding":[{"code":"https://bluebutton.cms.gov/resources/variables/line_prcsg_ind_cd","display":"Line Processing Indicator Code","system":"https://bluebutton.cms.gov/resources/codesystem/adjudication"}]}}],"extension":[{"url":"https://bluebutton.cms.gov/assets/ig/StructureDefinition-bluebutton-inpatient-rev-cntr-ndc-qty-extension","valueQuantity":{"value":0}}],"locationCodeableConcept":{"coding":[{"code":"21","display":"Inpatient Hospital","system":"https://bluebutton.cms.gov/resources/variables/line_place_of_srvc_cd"}]},"sequence":2,"service":{"coding":[{"code":"228557008","system":"http://snomed.info/sct","version":"v1"}]}}],"meta":{"lastUpdated":"2019-04-09T12:03:19.680978+00:00","profile":["https://bluebutton.cms.gov/assets/ig/StructureDefinition-bluebutton-inpatient-claim"],"versionId":"MTU1NDgxMTM5OTY4MDk3ODAwMA"},"organization":{"identifier":{"value":"4d5efb94-acd6-42fa-afdc-e1d894a0a2f7"}},"patient":{"reference":"Patient/0b1c606e-6cbd-4103-b535-6c3d7e9940b4"},"payment":{"amount":{"code":"USD","system":"urn:iso:std:iso:4217","value":8472.416000000001}},"provider":{"identifier":{"value":"b42f2bac-f12b-418d-abb7-03cbcba2919f"}},"resourceType":"ExplanationOfBenefit","status":"active","totalCost":{"code":"USD","system":"urn:iso:std:iso:4217","value":10715.52},"type":{"coding":[{"code":"71","display":"Local carrier non-durable medical equipment, prosthetics, orthotics, and supplies (DMEPOS) claim","system":"https://bluebutton.cms.gov/resources/variables/nch_clm_type_cd"},{"code":"CARRIER","display":"EOB Type","system":"https://bluebutton.cms.gov/resources/codesystem/eob-type"},{"code":"professional","display":"Claim Type","system":"http://hl7.org/fhir/ex-claimtype"},{"code":"O","display":"Part B physician/supplier claim record (processed by local carriers; can include DMEPOS services)","system":"https://bluebutton.cms.gov/resources/variables/nch_near_line_rec_ident_cd"}]}}},{"resource":{"billablePeriod":{"end":"2013-04-13T09:31:08-04:00","extension":[{"url":"https://bluebutton.cms.gov/assets/ig/StructureDefinition-bluebutton-inpatient-claim-query-cd-extension","valueCoding":{"code":"3","display":"Final Bill","system":"https://bluebutton.cms.gov/assets/ig/ValueSet-claim-query-cd"}}],"start":"2012-04-13T09:31:08-04:00"},"careTeam":[{"provider":{"identifier":{"system":"http://hl7.org/fhir/sid/us-npi","value":"99999999"}},"role":{"coding":[{"code":"primary","display":"Primary Care Practitioner","system":"http://hl7.org/fhir/claimcareteamrole"}]},"sequence":1}],"contained":[{"id":"coverage","resourceType":"Coverage","type":{"text":"private"}}],"extension":[{"url":"https://bluebutton.cms.gov/assets/ig/StructureDefinition-bluebutton-inpatient-ime-op-clm-val-amt-extension","valueMoney":{"code":"USD","system":"urn:iso:std:iso:4217","value":400}},{"url":"https://bluebutton.cms.gov/assets/ig/StructureDefinition-bluebutton-inpatient-dsh-op-clm-val-amt-extension","valueMoney":{"code":"USD","system":"urn:iso:std:iso:4217","value":0}},{"url":"https://bluebutton.cms.gov/assets/ig/StructureDefinition-bluebutton-inpatient-clm-pass-thru-per-diem-amt-extension","valueMoney":{"code":"USD","system":"urn:iso:std:iso:4217","value":0}},{"url":"https://bluebutton.cms.gov/assets/ig/StructureDefinition-bluebutton-inpatient-nch-profnl-cmpnt-chrg-amt-extension","valueMoney":{"code":"USD","system":"urn:iso:std:iso:4217","value":0}},{"url":"https://bluebutton.cms.gov/assets/ig/StructureDefinition-bluebutton-inpatient-clm-tot-pps-cptl-amt-extension","valueMoney":{"code":"USD","system":"urn:iso:std:iso:4217","value":0}},{"url":"https://bluebutton.cms.gov/assets/ig/StructureDefinition-bluebutton-inpatient-nch-bene-ip-ddctbl-amt-extension","valueMoney":{"code":"USD","system":"urn:iso:std:iso:4217","value":0}},{"url":"https://bluebutton.cms.gov/assets/ig/StructureDefinition-bluebutton-inpatient-nch-bene-pta-coinsrnc-lblty-amt-extension","valueMoney":{"code":"USD","system":"urn:iso:std:iso:4217","value":0}},{"url":"https://bluebutton.cms.gov/assets/ig/StructureDefinition-bluebutton-inpatient-nch-ip-ncvrd-chrg-amt-extension","valueMoney":{"code":"USD","system":"urn:iso:std:iso:4217","value":0}},{"url":"https://bluebutton.cms.gov/assets/ig/StructureDefinition-bluebutton-inpatient-nch-ip-tot-ddctn-amt-extension","valueMoney":{"code":"USD","system":"urn:iso:std:iso:4217","value":0}},{"url":"https://bluebutton.cms.gov/assets/ig/StructureDefinition-bluebutton-inpatient-clm-pps-cptl-dsprprtnt-shr-amt-extension","valueMoney":{"code":"USD","system":"urn:iso:std:iso:4217","value":0}},{"url":"https://bluebutton.cms.gov/assets/ig/StructureDefinition-bluebutton-inpatient-clm-pps-cptl-excptn-amt-extension","valueMoney":{"code":"USD","system":"urn:iso:std:iso:4217","value":0}},{"url":"https://bluebutton.cms.gov/assets/ig/StructureDefinition-bluebutton-inpatient-clm-pps-cptl-fsp-amt-extension","valueMoney":{"code":"USD","system":"urn:iso:std:iso:4217","value":0}},{"url":"https://bluebutton.cms.gov/assets/ig/StructureDefinition-bluebutton-inpatient-clm-pps-cptl-ime-amt-extension","valueMoney":{"code":"USD","system":"urn:iso:std:iso:4217","value":400}},{"url":"https://bluebutton.cms.gov/assets/ig/StructureDefinition-bluebutton-inpatient-clm-pps-cptl-outlier-amt-extension","valueMoney":{"code":"USD","system":"urn:iso:std:iso:4217","value":0}},{"url":"https://bluebutton.cms.gov/assets/ig/StructureDefinition-bluebutton-inpatient-clm-pps-old-cptl-hld-hrmls-amt-extension","valueMoney":{"code":"USD","system":"urn:iso:std:iso:4217","value":0}},{"url":"https://bluebutton.cms.gov/assets/ig/StructureDefinition-bluebutton-inpatient-nch-drg-outlier-aprvd-pmt-amt-extension","valueMoney":{"code":"USD","system":"urn:iso:std:iso:4217","value":0}},{"url":"https://bluebutton.cms.gov/assets/ig/StructureDefinition-bluebutton-inpatient-nch-bene-blood-ddctbl-lblty-am-extension","valueMoney":{"code":"USD","system":"urn:iso:std:iso:4217","value":0}},{"url":"https://bluebutton.cms.gov/assets/ig/StructureDefinition-bluebutton-inpatient-clm-mdcr-non-pmt-rsn-cd-extension","valueCoding":{"code":"N","display":"All other reasons for non-payment","system":"https://bluebutton.cms.gov/assets/ig/CodeSystem-clm-mdcr-non-pmt-rsn-cd"}},{"url":"https://bluebutton.cms.gov/assets/ig/StructureDefinition-bluebutton-inpatient-prpayamt-extension","valueMoney":{"code":"USD","system":"urn:iso:std:iso:4217","value":0}},{"url":"https://bluebutton.cms.gov/assets/ig/StructureDefinition-bluebutton-inpatient-fi-num-extension","valueIdentifier":{"system":"https://bluebutton.cms.gov/assets/ig/CodeSystem-fi-num","value":"002000"}}],"id":"cd41e56c-d41c-4029-b2d6-1b3452df0a08","identifier":[{"system":"https://bluebutton.cms.gov/resources/variables/clm_id","value":"3a17d8cd-1324-4c6b-a102-9ed2818128fa"},{"system":"https://bluebutton.cms.gov/resources/identifier/claim-group","value":"99999999999"}],"insurance":{"coverage":{"reference":"#coverage"}},"item":[{"extension":[{"url":"https://bluebutton.cms.gov/assets/ig/StructureDefinition-bluebutton-inpatient-rev-cntr-ndc-qty-extension","valueQuantity":{"value":0}}],"locationCodeableConcept":{"coding":[{"code":"21","display":"Inpatient Hospital","system":"https://bluebutton.cms.gov/resources/variables/line_place_of_srvc_cd"}]},"sequence":1},{"adjudication":[{"amount":{"code":"USD","system":"urn:iso:std:iso:4217","value":2066.344},"category":{"coding":[{"code":"https://bluebutton.cms.gov/resources/variables/line_coinsrnc_amt","display":"Line Beneficiary Coinsurance Amount","system":"https://bluebutton.cms.gov/resources/codesystem/adjudication"}]}},{"amount":{"code":"USD","system":"urn:iso:std:iso:4217","value":8265.376},"category":{"coding":[{"code":"https://bluebutton.cms.gov/resources/variables/line_prvdr_pmt_amt","display":"Line Provider Payment Amount","system":"https://bluebutton.cms.gov/resources/codesystem/adjudication"}]}},{"amount":{"code":"USD","system":"urn:iso:std:iso:4217","value":10331.72},"category":{"coding":[{"code":"https://bluebutton.cms.gov/resources/variables/line_sbmtd_chrg_amt","display":"Line Submitted Charge Amount","system":"https://bluebutton.cms.gov/resources/codesystem/adjudication"}]}},{"amount":{"code":"USD","system":"urn:iso:std:iso:4217","value":10331.72},"category":{"coding":[{"code":"https://bluebutton.cms.gov/resources/variables/line_alowd_chrg_amt","display":"Line Allowed Charge Amount","system":"https://bluebutton.cms.gov/resources/codesystem/adjudication"}]}},{"amount":{"code":"USD","system":"urn:iso:std:iso:4217","value":0},"category":{"coding":[{"code":"https://bluebutton.cms.gov/resources/variables/line_bene_ptb_ddctbl_amt","display":"Line Beneficiary Part B Deductible Amount","system":"https://bluebutton.cms.gov/resources/codesystem/adjudication"}]}},{"category":{"coding":[{"code":"https://bluebutton.cms.gov/resources/variables/line_prcsg_ind_cd","display":"Line Processing Indicator Code","system":"https://bluebutton.cms.gov/resources/codesystem/adjudication"}]}}],"extension":[{"url":"https://bluebutton.cms.gov/assets/ig/StructureDefinition-bluebutton-inpatient-rev-cntr-ndc-qty-extension","valueQuantity":{"value":0}}],"locationCodeableConcept":{"coding":[{"code":"21","display":"Inpatient Hospital","system":"https://bluebutton.cms.gov/resources/variables/line_place_of_srvc_cd"}]},"sequence":2,"service":{"coding":[{"code":"228557008","system":"http://snomed.info/sct","version":"v1"}]}}],"meta":{"lastUpdated":"2019-04-09T12:03:18.676223+00:00","profile":["https://bluebutton.cms.gov/assets/ig/StructureDefinition-bluebutton-inpatient-claim"],"versionId":"MTU1NDgxMTM5ODY3NjIyMzAwMA"},"organization":{"identifier":{"value":"4d5efb94-acd6-42fa-afdc-e1d894a0a2f7"}},"patient":{"reference":"Patient/0b1c606e-6cbd-4103-b535-6c3d7e9940b4"},"payment":{"amount":{"code":"USD","system":"urn:iso:std:iso:4217","value":8265.376}},"provider":{"identifier":{"value":"b42f2bac-f12b-418d-abb7-03cbcba2919f"}},"resourceType":"ExplanationOfBenefit","status":"active","totalCost":{"code":"USD","system":"urn:iso:std:iso:4217","value":10456.72},"type":{"coding":[{"code":"71","display":"Local carrier non-durable medical equipment, prosthetics, orthotics, and supplies (DMEPOS) claim","system":"https://bluebutton.cms.gov/resources/variables/nch_clm_type_cd"},{"code":"CARRIER","display":"EOB Type","system":"https://bluebutton.cms.gov/resources/codesystem/eob-type"},{"code":"professional","display":"Claim Type","system":"http://hl7.org/fhir/ex-claimtype"},{"code":"O","display":"Part B physician/supplier claim record (processed by local carriers; can include DMEPOS services)","system":"https://bluebutton.cms.gov/resources/variables/nch_near_line_rec_ident_cd"}]}}},{"resource":{"billablePeriod":{"end":"2015-11-12T07:31:08-05:00","extension":[{"url":"https://bluebutton.cms.gov/assets/ig/StructureDefinition-bluebutton-inpatient-claim-query-cd-extension","valueCoding":{"code":"3","display":"Final Bill","system":"https://bluebutton.cms.gov/assets/ig/ValueSet-claim-query-cd"}}],"start":"2014-11-12T07:31:08-05:00"},"careTeam":[{"provider":{"identifier":{"system":"http://hl7.org/fhir/sid/us-npi","value":"99999999"}},"role":{"coding":[{"code":"primary","display":"Primary Care Practitioner","system":"http://hl7.org/fhir/claimcareteamrole"}]},"sequence":1}],"contained":[{"id":"coverage","resourceType":"Coverage","type":{"text":"private"}}],"diagnosis":[{"diagnosisReference":{"reference":"Condition/bf4fc792-c8d4-41d1-807c-7c209ae88f0a"},"extension":[{"url":"https://bluebutton.cms.gov/assets/ig/StructureDefinition-bluebutton-inpatient-clm-poa-ind-sw1-extension","valueCoding":{"code":"Y","display":"Diagnosis present at time of admission","system":"https://bluebutton.cms.gov/assets/ig/CodeSystem-clm-poa-ind-sw1"}}],"sequence":1,"type":[{"coding":[{"code":"principal","system":"https://bluebutton.cms.gov/resources/codesystem/diagnosis-type"}]}]}],"extension":[{"url":"https://bluebutton.cms.gov/assets/ig/StructureDefinition-bluebutton-inpatient-ime-op-clm-val-amt-extension","valueMoney":{"code":"USD","system":"urn:iso:std:iso:4217","value":400}},{"url":"https://bluebutton.cms.gov/assets/ig/StructureDefinition-bluebutton-inpatient-dsh-op-clm-val-amt-extension","valueMoney":{"code":"USD","system":"urn:iso:std:iso:4217","value":0}},{"url":"https://bluebutton.cms.gov/assets/ig/StructureDefinition-bluebutton-inpatient-clm-pass-thru-per-diem-amt-extension","valueMoney":{"code":"USD","system":"urn:iso:std:iso:4217","value":0}},{"url":"https://bluebutton.cms.gov/assets/ig/StructureDefinition-bluebutton-inpatient-nch-profnl-cmpnt-chrg-amt-extension","valueMoney":{"code":"USD","system":"urn:iso:std:iso:4217","value":0}},{"url":"https://bluebutton.cms.gov/assets/ig/StructureDefinition-bluebutton-inpatient-clm-tot-pps-cptl-amt-extension","valueMoney":{"code":"USD","system":"urn:iso:std:iso:4217","value":0}},{"url":"https://bluebutton.cms.gov/assets/ig/StructureDefinition-bluebutton-inpatient-nch-bene-ip-ddctbl-amt-extension","valueMoney":{"code":"USD","system":"urn:iso:std:iso:4217","value":0}},{"url":"https://bluebutton.cms.gov/assets/ig/StructureDefinition-bluebutton-inpatient-nch-bene-pta-coinsrnc-lblty-amt-extension","valueMoney":{"code":"USD","system":"urn:iso:std:iso:4217","value":0}},{"url":"https://bluebutton.cms.gov/assets/ig/StructureDefinition-bluebutton-inpatient-nch-ip-ncvrd-chrg-amt-extension","valueMoney":{"code":"USD","system":"urn:iso:std:iso:4217","value":0}},{"url":"https://bluebutton.cms.gov/assets/ig/StructureDefinition-bluebutton-inpatient-nch-ip-tot-ddctn-amt-extension","valueMoney":{"code":"USD","system":"urn:iso:std:iso:4217","value":0}},{"url":"https://bluebutton.cms.gov/assets/ig/StructureDefinition-bluebutton-inpatient-clm-pps-cptl-dsprprtnt-shr-amt-extension","valueMoney":{"code":"USD","system":"urn:iso:std:iso:4217","value":0}},{"url":"https://bluebutton.cms.gov/assets/ig/StructureDefinition-bluebutton-inpatient-clm-pps-cptl-excptn-amt-extension","valueMoney":{"code":"USD","system":"urn:iso:std:iso:4217","value":0}},{"url":"https://bluebutton.cms.gov/assets/ig/StructureDefinition-bluebutton-inpatient-clm-pps-cptl-fsp-amt-extension","valueMoney":{"code":"USD","system":"urn:iso:std:iso:4217","value":0}},{"url":"https://bluebutton.cms.gov/assets/ig/StructureDefinition-bluebutton-inpatient-clm-pps-cptl-ime-amt-extension","valueMoney":{"code":"USD","system":"urn:iso:std:iso:4217","value":400}},{"url":"https://bluebutton.cms.gov/assets/ig/StructureDefinition-bluebutton-inpatient-clm-pps-cptl-outlier-amt-extension","valueMoney":{"code":"USD","system":"urn:iso:std:iso:4217","value":0}},{"url":"https://bluebutton.cms.gov/assets/ig/StructureDefinition-bluebutton-inpatient-clm-pps-old-cptl-hld-hrmls-amt-extension","valueMoney":{"code":"USD","system":"urn:iso:std:iso:4217","value":0}},{"url":"https://bluebutton.cms.gov/assets/ig/StructureDefinition-bluebutton-inpatient-nch-drg-outlier-aprvd-pmt-amt-extension","valueMoney":{"code":"USD","system":"urn:iso:std:iso:4217","value":0}},{"url":"https://bluebutton.cms.gov/assets/ig/StructureDefinition-bluebutton-inpatient-nch-bene-blood-ddctbl-lblty-am-extension","valueMoney":{"code":"USD","system":"urn:iso:std:iso:4217","value":0}},{"url":"https://bluebutton.cms.gov/assets/ig/StructureDefinition-bluebutton-inpatient-clm-mdcr-non-pmt-rsn-cd-extension","valueCoding":{"code":"N","display":"All other reasons for non-payment","system":"https://bluebutton.cms.gov/assets/ig/CodeSystem-clm-mdcr-non-pmt-rsn-cd"}},{"url":"https://bluebutton.cms.gov/assets/ig/StructureDefinition-bluebutton-inpatient-prpayamt-extension","valueMoney":{"code":"USD","system":"urn:iso:std:iso:4217","value":0}},{"url":"https://bluebutton.cms.gov/assets/ig/StructureDefinition-bluebutton-inpatient-fi-num-extension","valueIdentifier":{"system":"https://bluebutton.cms.gov/assets/ig/CodeSystem-fi-num","value":"002000"}}],"id":"cdee054e-8264-4a8a-bc38-9f88163ed374","identifier":[{"system":"https://bluebutton.cms.gov/resources/variables/clm_id","value":"eea6d65b-88f8-47c2-8792-ab723b8ce52c"},{"system":"https://bluebutton.cms.gov/resources/identifier/claim-group","value":"99999999999"}],"insurance":{"coverage":{"reference":"#coverage"}},"item":[{"extension":[{"url":"https://bluebutton.cms.gov/assets/ig/StructureDefinition-bluebutton-inpatient-rev-cntr-ndc-qty-extension","valueQuantity":{"value":0}}],"locationCodeableConcept":{"coding":[{"code":"21","display":"Inpatient Hospital","system":"https://bluebutton.cms.gov/resources/variables/line_place_of_srvc_cd"}]},"sequence":1},{"extension":[{"url":"https://bluebutton.cms.gov/assets/ig/StructureDefinition-bluebutton-inpatient-rev-cntr-ndc-qty-extension","valueQuantity":{"value":0}}],"locationCodeableConcept":{"coding":[{"code":"21","display":"Inpatient Hospital","system":"https://bluebutton.cms.gov/resources/variables/line_place_of_srvc_cd"}]},"sequence":2}],"meta":{"lastUpdated":"2019-04-09T12:03:19.739414+00:00","profile":["https://bluebutton.cms.gov/assets/ig/StructureDefinition-bluebutton-inpatient-claim"],"versionId":"MTU1NDgxMTM5OTczOTQxNDAwMA"},"organization":{"identifier":{"value":"4d5efb94-acd6-42fa-afdc-e1d894a0a2f7"}},"patient":{"reference":"Patient/0b1c606e-6cbd-4103-b535-6c3d7e9940b4"},"payment":{"amount":{"code":"USD","system":"urn:iso:std:iso:4217","value":0}},"provider":{"identifier":{"value":"b42f2bac-f12b-418d-abb7-03cbcba2919f"}},"resourceType":"ExplanationOfBenefit","status":"active","totalCost":{"code":"USD","system":"urn:iso:std:iso:4217","value":125},"type":{"coding":[{"code":"71","display":"Local carrier non-durable medical equipment, prosthetics, orthotics, and supplies (DMEPOS) claim","system":"https://bluebutton.cms.gov/resources/variables/nch_clm_type_cd"},{"code":"CARRIER","display":"EOB Type","system":"https://bluebutton.cms.gov/resources/codesystem/eob-type"},{"code":"professional","display":"Claim Type","system":"http://hl7.org/fhir/ex-claimtype"},{"code":"O","display":"Part B physician/supplier claim record (processed by local carriers; can include DMEPOS services)","system":"https://bluebutton.cms.gov/resources/variables/nch_near_line_rec_ident_cd"}]}}},{"resource":{"billablePeriod":{"end":"2014-07-26T09:31:08-04:00","extension":[{"url":"https://bluebutton.cms.gov/assets/ig/StructureDefinition-bluebutton-inpatient-claim-query-cd-extension","valueCoding":{"code":"3","display":"Final Bill","system":"https://bluebutton.cms.gov/assets/ig/ValueSet-claim-query-cd"}}],"start":"2013-07-26T09:31:08-04:00"},"careTeam":[{"provider":{"identifier":{"system":"http://hl7.org/fhir/sid/us-npi","value":"99999999"}},"role":{"coding":[{"code":"primary","display":"Primary Care Practitioner","system":"http://hl7.org/fhir/claimcareteamrole"}]},"sequence":1}],"contained":[{"id":"coverage","resourceType":"Coverage","type":{"text":"private"}}],"extension":[{"url":"https://bluebutton.cms.gov/assets/ig/StructureDefinition-bluebutton-inpatient-ime-op-clm-val-amt-extension","valueMoney":{"code":"USD","system":"urn:iso:std:iso:4217","value":400}},{"url":"https://bluebutton.cms.gov/assets/ig/StructureDefinition-bluebutton-inpatient-dsh-op-clm-val-amt-extension","valueMoney":{"code":"USD","system":"urn:iso:std:iso:4217","value":0}},{"url":"https://bluebutton.cms.gov/assets/ig/StructureDefinition-bluebutton-inpatient-clm-pass-thru-per-diem-amt-extension","valueMoney":{"code":"USD","system":"urn:iso:std:iso:4217","value":0}},{"url":"https://bluebutton.cms.gov/assets/ig/StructureDefinition-bluebutton-inpatient-nch-profnl-cmpnt-chrg-amt-extension","valueMoney":{"code":"USD","system":"urn:iso:std:iso:4217","value":0}},{"url":"https://bluebutton.cms.gov/assets/ig/StructureDefinition-bluebutton-inpatient-clm-tot-pps-cptl-amt-extension","valueMoney":{"code":"USD","system":"urn:iso:std:iso:4217","value":0}},{"url":"https://bluebutton.cms.gov/assets/ig/StructureDefinition-bluebutton-inpatient-nch-bene-ip-ddctbl-amt-extension","valueMoney":{"code":"USD","system":"urn:iso:std:iso:4217","value":0}},{"url":"https://bluebutton.cms.gov/assets/ig/StructureDefinition-bluebutton-inpatient-nch-bene-pta-coinsrnc-lblty-amt-extension","valueMoney":{"code":"USD","system":"urn:iso:std:iso:4217","value":0}},{"url":"https://bluebutton.cms.gov/assets/ig/StructureDefinition-bluebutton-inpatient-nch-ip-ncvrd-chrg-amt-extension","valueMoney":{"code":"USD","system":"urn:iso:std:iso:4217","value":0}},{"url":"https://bluebutton.cms.gov/assets/ig/StructureDefinition-bluebutton-inpatient-nch-ip-tot-ddctn-amt-extension","valueMoney":{"code":"USD","system":"urn:iso:std:iso:4217","value":0}},{"url":"https://bluebutton.cms.gov/assets/ig/StructureDefinition-bluebutton-inpatient-clm-pps-cptl-dsprprtnt-shr-amt-extension","valueMoney":{"code":"USD","system":"urn:iso:std:iso:4217","value":0}},{"url":"https://bluebutton.cms.gov/assets/ig/StructureDefinition-bluebutton-inpatient-clm-pps-cptl-excptn-amt-extension","valueMoney":{"code":"USD","system":"urn:iso:std:iso:4217","value":0}},{"url":"https://bluebutton.cms.gov/assets/ig/StructureDefinition-bluebutton-inpatient-clm-pps-cptl-fsp-amt-extension","valueMoney":{"code":"USD","system":"urn:iso:std:iso:4217","value":0}},{"url":"https://bluebutton.cms.gov/assets/ig/StructureDefinition-bluebutton-inpatient-clm-pps-cptl-ime-amt-extension","valueMoney":{"code":"USD","system":"urn:iso:std:iso:4217","value":400}},{"url":"https://bluebutton.cms.gov/assets/ig/StructureDefinition-bluebutton-inpatient-clm-pps-cptl-outlier-amt-extension","valueMoney":{"code":"USD","system":"urn:iso:std:iso:4217","value":0}},{"url":"https://bluebutton.cms.gov/assets/ig/StructureDefinition-bluebutton-inpatient-clm-pps-old-cptl-hld-hrmls-amt-extension","valueMoney":{"code":"USD","system":"urn:iso:std:iso:4217","value":0}},{"url":"https://bluebutton.cms.gov/assets/ig/StructureDefinition-bluebutton-inpatient-nch-drg-outlier-aprvd-pmt-amt-extension","valueMoney":{"code":"USD","system":"urn:iso:std:iso:4217","value":0}},{"url":"https://bluebutton.cms.gov/assets/ig/StructureDefinition-bluebutton-inpatient-nch-bene-blood-ddctbl-lblty-am-extension","valueMoney":{"code":"USD","system":"urn:iso:std:iso:4217","value":0}},{"url":"https://bluebutton.cms.gov/assets/ig/StructureDefinition-bluebutton-inpatient-clm-mdcr-non-pmt-rsn-cd-extension","valueCoding":{"code":"N","display":"All other reasons for non-payment","system":"https://bluebutton.cms.gov/assets/ig/CodeSystem-clm-mdcr-non-pmt-rsn-cd"}},{"url":"https://bluebutton.cms.gov/assets/ig/StructureDefinition-bluebutton-inpatient-prpayamt-extension","valueMoney":{"code":"USD","system":"urn:iso:std:iso:4217","value":0}},{"url":"https://bluebutton.cms.gov/assets/ig/StructureDefinition-bluebutton-inpatient-fi-num-extension","valueIdentifier":{"system":"https://bluebutton.cms.gov/assets/ig/CodeSystem-fi-num","value":"002000"}}],"id":"ce804161-3dbe-4c30-a40e-0c8a8deddabe","identifier":[{"system":"https://bluebutton.cms.gov/resources/variables/clm_id","value":"9fb8b876-2f9f-49d7-8d50-60bcbe348f4a"},{"system":"https://bluebutton.cms.gov/resources/identifier/claim-group","value":"99999999999"}],"insurance":{"coverage":{"reference":"#coverage"}},"item":[{"extension":[{"url":"https://bluebutton.cms.gov/assets/ig/StructureDefinition-bluebutton-inpatient-rev-cntr-ndc-qty-extension","valueQuantity":{"value":0}}],"locationCodeableConcept":{"coding":[{"code":"21","display":"Inpatient Hospital","system":"https://bluebutton.cms.gov/resources/variables/line_place_of_srvc_cd"}]},"sequence":1},{"adjudication":[{"amount":{"code":"USD","system":"urn:iso:std:iso:4217","value":3042.57},"category":{"coding":[{"code":"https://bluebutton.cms.gov/resources/variables/line_coinsrnc_amt","display":"Line Beneficiary Coinsurance Amount","system":"https://bluebutton.cms.gov/resources/codesystem/adjudication"}]}},{"amount":{"code":"USD","system":"urn:iso:std:iso:4217","value":12170.28},"category":{"coding":[{"code":"https://bluebutton.cms.gov/resources/variables/line_prvdr_pmt_amt","display":"Line Provider Payment Amount","system":"https://bluebutton.cms.gov/resources/codesystem/adjudication"}]}},{"amount":{"code":"USD","system":"urn:iso:std:iso:4217","value":15212.85},"category":{"coding":[{"code":"https://bluebutton.cms.gov/resources/variables/line_sbmtd_chrg_amt","display":"Line Submitted Charge Amount","system":"https://bluebutton.cms.gov/resources/codesystem/adjudication"}]}},{"amount":{"code":"USD","system":"urn:iso:std:iso:4217","value":15212.85},"category":{"coding":[{"code":"https://bluebutton.cms.gov/resources/variables/line_alowd_chrg_amt","display":"Line Allowed Charge Amount","system":"https://bluebutton.cms.gov/resources/codesystem/adjudication"}]}},{"amount":{"code":"USD","system":"urn:iso:std:iso:4217","value":0},"category":{"coding":[{"code":"https://bluebutton.cms.gov/resources/variables/line_bene_ptb_ddctbl_amt","display":"Line Beneficiary Part B Deductible Amount","system":"https://bluebutton.cms.gov/resources/codesystem/adjudication"}]}},{"category":{"coding":[{"code":"https://bluebutton.cms.gov/resources/variables/line_prcsg_ind_cd","display":"Line Processing Indicator Code","system":"https://bluebutton.cms.gov/resources/codesystem/adjudication"}]}}],"extension":[{"url":"https://bluebutton.cms.gov/assets/ig/StructureDefinition-bluebutton-inpatient-rev-cntr-ndc-qty-extension","valueQuantity":{"value":0}}],"locationCodeableConcept":{"coding":[{"code":"21","display":"Inpatient Hospital","system":"https://bluebutton.cms.gov/resources/variables/line_place_of_srvc_cd"}]},"sequence":2,"service":{"coding":[{"code":"228557008","system":"http://snomed.info/sct","version":"v1"}]}}],"meta":{"lastUpdated":"2019-04-09T12:03:19.714361+00:00","profile":["https://bluebutton.cms.gov/assets/ig/StructureDefinition-bluebutton-inpatient-claim"],"versionId":"MTU1NDgxMTM5OTcxNDM2MTAwMA"},"organization":{"identifier":{"value":"4d5efb94-acd6-42fa-afdc-e1d894a0a2f7"}},"patient":{"reference":"Patient/0b1c606e-6cbd-4103-b535-6c3d7e9940b4"},"payment":{"amount":{"code":"USD","system":"urn:iso:std:iso:4217","value":12170.28}},"provider":{"identifier":{"value":"b42f2bac-f12b-418d-abb7-03cbcba2919f"}},"resourceType":"ExplanationOfBenefit","status":"active","totalCost":{"code":"USD","system":"urn:iso:std:iso:4217","value":15337.85},"type":{"coding":[{"code":"71","display":"Local carrier non-durable medical equipment, prosthetics, orthotics, and supplies (DMEPOS) claim","system":"https://bluebutton.cms.gov/resources/variables/nch_clm_type_cd"},{"code":"CARRIER","display":"EOB Type","system":"https://bluebutton.cms.gov/resources/codesystem/eob-type"},{"code":"professional","display":"Claim Type","system":"http://hl7.org/fhir/ex-claimtype"},{"code":"O","display":"Part B physician/supplier claim record (processed by local carriers; can include DMEPOS services)","system":"https://bluebutton.cms.gov/resources/variables/nch_near_line_rec_ident_cd"}]}}},{"resource":{"billablePeriod":{"end":"2015-03-07T08:31:08-05:00","extension":[{"url":"https://bluebutton.cms.gov/assets/ig/StructureDefinition-bluebutton-inpatient-claim-query-cd-extension","valueCoding":{"code":"3","display":"Final Bill","system":"https://bluebutton.cms.gov/assets/ig/ValueSet-claim-query-cd"}}],"start":"2014-03-07T08:31:08-05:00"},"careTeam":[{"provider":{"identifier":{"system":"http://hl7.org/fhir/sid/us-npi","value":"99999999"}},"role":{"coding":[{"code":"primary","display":"Primary Care Practitioner","system":"http://hl7.org/fhir/claimcareteamrole"}]},"sequence":1}],"contained":[{"id":"coverage","resourceType":"Coverage","type":{"text":"private"}}],"extension":[{"url":"https://bluebutton.cms.gov/assets/ig/StructureDefinition-bluebutton-inpatient-ime-op-clm-val-amt-extension","valueMoney":{"code":"USD","system":"urn:iso:std:iso:4217","value":400}},{"url":"https://bluebutton.cms.gov/assets/ig/StructureDefinition-bluebutton-inpatient-dsh-op-clm-val-amt-extension","valueMoney":{"code":"USD","system":"urn:iso:std:iso:4217","value":0}},{"url":"https://bluebutton.cms.gov/assets/ig/StructureDefinition-bluebutton-inpatient-clm-pass-thru-per-diem-amt-extension","valueMoney":{"code":"USD","system":"urn:iso:std:iso:4217","value":0}},{"url":"https://bluebutton.cms.gov/assets/ig/StructureDefinition-bluebutton-inpatient-nch-profnl-cmpnt-chrg-amt-extension","valueMoney":{"code":"USD","system":"urn:iso:std:iso:4217","value":0}},{"url":"https://bluebutton.cms.gov/assets/ig/StructureDefinition-bluebutton-inpatient-clm-tot-pps-cptl-amt-extension","valueMoney":{"code":"USD","system":"urn:iso:std:iso:4217","value":0}},{"url":"https://bluebutton.cms.gov/assets/ig/StructureDefinition-bluebutton-inpatient-nch-bene-ip-ddctbl-amt-extension","valueMoney":{"code":"USD","system":"urn:iso:std:iso:4217","value":0}},{"url":"https://bluebutton.cms.gov/assets/ig/StructureDefinition-bluebutton-inpatient-nch-bene-pta-coinsrnc-lblty-amt-extension","valueMoney":{"code":"USD","system":"urn:iso:std:iso:4217","value":0}},{"url":"https://bluebutton.cms.gov/assets/ig/StructureDefinition-bluebutton-inpatient-nch-ip-ncvrd-chrg-amt-extension","valueMoney":{"code":"USD","system":"urn:iso:std:iso:4217","value":0}},{"url":"https://bluebutton.cms.gov/assets/ig/StructureDefinition-bluebutton-inpatient-nch-ip-tot-ddctn-amt-extension","valueMoney":{"code":"USD","system":"urn:iso:std:iso:4217","value":0}},{"url":"https://bluebutton.cms.gov/assets/ig/StructureDefinition-bluebutton-inpatient-clm-pps-cptl-dsprprtnt-shr-amt-extension","valueMoney":{"code":"USD","system":"urn:iso:std:iso:4217","value":0}},{"url":"https://bluebutton.cms.gov/assets/ig/StructureDefinition-bluebutton-inpatient-clm-pps-cptl-excptn-amt-extension","valueMoney":{"code":"USD","system":"urn:iso:std:iso:4217","value":0}},{"url":"https://bluebutton.cms.gov/assets/ig/StructureDefinition-bluebutton-inpatient-clm-pps-cptl-fsp-amt-extension","valueMoney":{"code":"USD","system":"urn:iso:std:iso:4217","value":0}},{"url":"https://bluebutton.cms.gov/assets/ig/StructureDefinition-bluebutton-inpatient-clm-pps-cptl-ime-amt-extension","valueMoney":{"code":"USD","system":"urn:iso:std:iso:4217","value":400}},{"url":"https://bluebutton.cms.gov/assets/ig/StructureDefinition-bluebutton-inpatient-clm-pps-cptl-outlier-amt-extension","valueMoney":{"code":"USD","system":"urn:iso:std:iso:4217","value":0}},{"url":"https://bluebutton.cms.gov/assets/ig/StructureDefinition-bluebutton-inpatient-clm-pps-old-cptl-hld-hrmls-amt-extension","valueMoney":{"code":"USD","system":"urn:iso:std:iso:4217","value":0}},{"url":"https://bluebutton.cms.gov/assets/ig/StructureDefinition-bluebutton-inpatient-nch-drg-outlier-aprvd-pmt-amt-extension","valueMoney":{"code":"USD","system":"urn:iso:std:iso:4217","value":0}},{"url":"https://bluebutton.cms.gov/assets/ig/StructureDefinition-bluebutton-inpatient-nch-bene-blood-ddctbl-lblty-am-extension","valueMoney":{"code":"USD","system":"urn:iso:std:iso:4217","value":0}},{"url":"https://bluebutton.cms.gov/assets/ig/StructureDefinition-bluebutton-inpatient-clm-mdcr-non-pmt-rsn-cd-extension","valueCoding":{"code":"N","display":"All other reasons for non-payment","system":"https://bluebutton.cms.gov/assets/ig/CodeSystem-clm-mdcr-non-pmt-rsn-cd"}},{"url":"https://bluebutton.cms.gov/assets/ig/StructureDefinition-bluebutton-inpatient-prpayamt-extension","valueMoney":{"code":"USD","system":"urn:iso:std:iso:4217","value":0}},{"url":"https://bluebutton.cms.gov/assets/ig/StructureDefinition-bluebutton-inpatient-fi-num-extension","valueIdentifier":{"system":"https://bluebutton.cms.gov/assets/ig/CodeSystem-fi-num","value":"002000"}}],"id":"d9f7960c-56f7-4d78-be02-b547fd5a1b9d","identifier":[{"system":"https://bluebutton.cms.gov/resources/variables/clm_id","value":"84459eb1-e056-4427-8f4b-5d21b6ce0249"},{"system":"https://bluebutton.cms.gov/resources/identifier/claim-group","value":"99999999999"}],"insurance":{"coverage":{"reference":"#coverage"}},"item":[{"extension":[{"url":"https://bluebutton.cms.gov/assets/ig/StructureDefinition-bluebutton-inpatient-rev-cntr-ndc-qty-extension","valueQuantity":{"value":0}}],"locationCodeableConcept":{"coding":[{"code":"21","display":"Inpatient Hospital","system":"https://bluebutton.cms.gov/resources/variables/line_place_of_srvc_cd"}]},"sequence":1},{"adjudication":[{"amount":{"code":"USD","system":"urn:iso:std:iso:4217","value":2553.134},"category":{"coding":[{"code":"https://bluebutton.cms.gov/resources/variables/line_coinsrnc_amt","display":"Line Beneficiary Coinsurance Amount","system":"https://bluebutton.cms.gov/resources/codesystem/adjudication"}]}},{"amount":{"code":"USD","system":"urn:iso:std:iso:4217","value":10212.536},"category":{"coding":[{"code":"https://bluebutton.cms.gov/resources/variables/line_prvdr_pmt_amt","display":"Line Provider Payment Amount","system":"https://bluebutton.cms.gov/resources/codesystem/adjudication"}]}},{"amount":{"code":"USD","system":"urn:iso:std:iso:4217","value":12765.67},"category":{"coding":[{"code":"https://bluebutton.cms.gov/resources/variables/line_sbmtd_chrg_amt","display":"Line Submitted Charge Amount","system":"https://bluebutton.cms.gov/resources/codesystem/adjudication"}]}},{"amount":{"code":"USD","system":"urn:iso:std:iso:4217","value":12765.67},"category":{"coding":[{"code":"https://bluebutton.cms.gov/resources/variables/line_alowd_chrg_amt","display":"Line Allowed Charge Amount","system":"https://bluebutton.cms.gov/resources/codesystem/adjudication"}]}},{"amount":{"code":"USD","system":"urn:iso:std:iso:4217","value":0},"category":{"coding":[{"code":"https://bluebutton.cms.gov/resources/variables/line_bene_ptb_ddctbl_amt","display":"Line Beneficiary Part B Deductible Amount","system":"https://bluebutton.cms.gov/resources/codesystem/adjudication"}]}},{"category":{"coding":[{"code":"https://bluebutton.cms.gov/resources/variables/line_prcsg_ind_cd","display":"Line Processing Indicator Code","system":"https://bluebutton.cms.gov/resources/codesystem/adjudication"}]}}],"extension":[{"url":"https://bluebutton.cms.gov/assets/ig/StructureDefinition-bluebutton-inpatient-rev-cntr-ndc-qty-extension","valueQuantity":{"value":0}}],"locationCodeableConcept":{"coding":[{"code":"21","display":"Inpatient Hospital","system":"https://bluebutton.cms.gov/resources/variables/line_place_of_srvc_cd"}]},"sequence":2,"service":{"coding":[{"code":"228557008","system":"http://snomed.info/sct","version":"v1"}]}}],"meta":{"lastUpdated":"2019-04-09T12:03:19.713841+00:00","profile":["https://bluebutton.cms.gov/assets/ig/StructureDefinition-bluebutton-inpatient-claim"],"versionId":"MTU1NDgxMTM5OTcxMzg0MTAwMA"},"organization":{"identifier":{"value":"4d5efb94-acd6-42fa-afdc-e1d894a0a2f7"}},"patient":{"reference":"Patient/0b1c606e-6cbd-4103-b535-6c3d7e9940b4"},"payment":{"amount":{"code":"USD","system":"urn:iso:std:iso:4217","value":10212.536}},"provider":{"identifier":{"value":"b42f2bac-f12b-418d-abb7-03cbcba2919f"}},"resourceType":"ExplanationOfBenefit","status":"active","totalCost":{"code":"USD","system":"urn:iso:std:iso:4217","value":12890.67},"type":{"coding":[{"code":"71","display":"Local carrier non-durable medical equipment, prosthetics, orthotics, and supplies (DMEPOS) claim","system":"https://bluebutton.cms.gov/resources/variables/nch_clm_type_cd"},{"code":"CARRIER","display":"EOB Type","system":"https://bluebutton.cms.gov/resources/codesystem/eob-type"},{"code":"professional","display":"Claim Type","system":"http://hl7.org/fhir/ex-claimtype"},{"code":"O","display":"Part B physician/supplier claim record (processed by local carriers; can include DMEPOS services)","system":"https://bluebutton.cms.gov/resources/variables/nch_near_line_rec_ident_cd"}]}}},{"resource":{"billablePeriod":{"end":"2011-07-17T08:31:08-04:00","extension":[{"url":"https://bluebutton.cms.gov/assets/ig/StructureDefinition-bluebutton-outpatient-claim-query-cd-extension","valueCoding":{"code":"3","display":"Final Bill","system":"https://bluebutton.cms.gov/assets/ig/ValueSet-claim-query-cd"}}],"start":"2010-07-17T08:31:08-04:00"},"careTeam":[{"provider":{"identifier":{"system":"http://hl7.org/fhir/sid/us-npi","value":"99999999"}},"role":{"coding":[{"code":"primary","display":"Primary Care Practitioner","system":"http://hl7.org/fhir/claimcareteamrole"}]},"sequence":1}],"contained":[{"id":"coverage","resourceType":"Coverage","type":{"text":"private"}}],"diagnosis":[{"diagnosisReference":{"reference":"Condition/baafba79-c9db-4b99-8795-bf14c64a66f1"},"extension":[{"url":"https://bluebutton.cms.gov/assets/ig/StructureDefinition-bluebutton-inpatient-clm-poa-ind-sw1-extension","valueCoding":{"code":"Y","display":"Diagnosis present at time of admission","system":"https://bluebutton.cms.gov/assets/ig/CodeSystem-clm-poa-ind-sw1"}}],"sequence":1,"type":[{"coding":[{"code":"principal","system":"https://bluebutton.cms.gov/resources/codesystem/diagnosis-type"}]}]}],"extension":[{"url":"https://bluebutton.cms.gov/assets/ig/StructureDefinition-bluebutton-outpatient-nch-profnl-cmpnt-chrg-amt-extension","valueMoney":{"code":"USD","system":"urn:iso:std:iso:4217","value":0}},{"url":"https://bluebutton.cms.gov/assets/ig/StructureDefinition-bluebutton-outpatient-nch-bene-ptb-ddctbl-amt-extension","valueMoney":{"code":"USD","system":"urn:iso:std:iso:4217","value":0}},{"url":"https://bluebutton.cms.gov/assets/ig/StructureDefinition-bluebutton-outpatient-nch-bene-ptb-coinsrnc-amt-extension","valueMoney":{"code":"USD","system":"urn:iso:std:iso:4217","value":0}},{"url":"https://bluebutton.cms.gov/assets/ig/StructureDefinition-bluebutton-outpatient-clm-op-prvdr-pmt-amt-extension","valueMoney":{"code":"USD","system":"urn:iso:std:iso:4217","value":0}},{"url":"https://bluebutton.cms.gov/assets/ig/StructureDefinition-bluebutton-outpatient-clm-op-bene-pmt-amt-extension","valueMoney":{"code":"USD","system":"urn:iso:std:iso:4217","value":0}},{"url":"https://bluebutton.cms.gov/assets/ig/StructureDefinition-bluebutton-outpatient-nch-bene-blood-ddctbl-lblty-am-extension","valueMoney":{"code":"USD","system":"urn:iso:std:iso:4217","value":0}},{"url":"https://bluebutton.cms.gov/assets/ig/StructureDefinition-bluebutton-outpatient-clm-mdcr-non-pmt-rsn-cd-extension","valueCoding":{"code":"N","display":"All other reasons for non-payment","system":"https://bluebutton.cms.gov/assets/ig/CodeSystem-clm-mdcr-non-pmt-rsn-cd"}},{"url":"https://bluebutton.cms.gov/assets/ig/StructureDefinition-bluebutton-outpatient-prpayamt-extension","valueMoney":{"code":"USD","system":"urn:iso:std:iso:4217","value":0}},{"url":"https://bluebutton.cms.gov/assets/ig/StructureDefinition-bluebutton-outpatient-fi-num-extension","valueIdentifier":{"system":"https://bluebutton.cms.gov/assets/ig/CodeSystem-fi-num","value":"002000"}}],"id":"e13be243-c5f0-4750-be55-e89401416089","identifier":[{"system":"https://bluebutton.cms.gov/resources/variables/clm_id","value":"4d9c179d-9d68-44fd-a951-ef756324565f"},{"system":"https://bluebutton.cms.gov/resources/identifier/claim-group","value":"99999999999"}],"insurance":{"coverage":{"reference":"#coverage"}},"item":[{"extension":[{"url":"https://bluebutton.cms.gov/assets/ig/StructureDefinition-bluebutton-outpatient-rev-cntr-ndc-qty-extension","valueQuantity":{"value":0}}],"locationCodeableConcept":{"coding":[{"code":"21","display":"Inpatient Hospital","system":"https://bluebutton.cms.gov/resources/variables/line_place_of_srvc_cd"}]},"sequence":1},{"extension":[{"url":"https://bluebutton.cms.gov/assets/ig/StructureDefinition-bluebutton-outpatient-rev-cntr-ndc-qty-extension","valueQuantity":{"value":0}}],"locationCodeableConcept":{"coding":[{"code":"21","display":"Inpatient Hospital","system":"https://bluebutton.cms.gov/resources/variables/line_place_of_srvc_cd"}]},"sequence":2}],"meta":{"lastUpdated":"2019-04-09T12:03:18.671838+00:00","profile":["https://bluebutton.cms.gov/assets/ig/StructureDefinition-bluebutton-outpatient-claim"],"versionId":"MTU1NDgxMTM5ODY3MTgzODAwMA"},"organization":{"identifier":{"value":"4d5efb94-acd6-42fa-afdc-e1d894a0a2f7"}},"patient":{"reference":"Patient/0b1c606e-6cbd-4103-b535-6c3d7e9940b4"},"payment":{"amount":{"code":"USD","system":"urn:iso:std:iso:4217","value":0}},"provider":{"identifier":{"value":"b42f2bac-f12b-418d-abb7-03cbcba2919f"}},"resourceType":"ExplanationOfBenefit","status":"active","totalCost":{"code":"USD","system":"urn:iso:std:iso:4217","value":125},"type":{"coding":[{"code":"71","display":"Local carrier non-durable medical equipment, prosthetics, orthotics, and supplies (DMEPOS) claim","system":"https://bluebutton.cms.gov/resources/variables/nch_clm_type_cd"},{"code":"CARRIER","display":"EOB Type","system":"https://bluebutton.cms.gov/resources/codesystem/eob-type"},{"code":"professional","display":"Claim Type","system":"http://hl7.org/fhir/ex-claimtype"},{"code":"O","display":"Part B physician/supplier claim record (processed by local carriers; can include DMEPOS services)","system":"https://bluebutton.cms.gov/resources/variables/nch_near_line_rec_ident_cd"}]}}},{"resource":{"billablePeriod":{"end":"2011-11-26T08:31:08-05:00","extension":[{"url":"https://bluebutton.cms.gov/assets/ig/StructureDefinition-bluebutton-inpatient-claim-query-cd-extension","valueCoding":{"code":"3","display":"Final Bill","system":"https://bluebutton.cms.gov/assets/ig/ValueSet-claim-query-cd"}}],"start":"2010-11-26T08:31:08-05:00"},"careTeam":[{"provider":{"identifier":{"system":"http://hl7.org/fhir/sid/us-npi","value":"99999999"}},"role":{"coding":[{"code":"primary","display":"Primary Care Practitioner","system":"http://hl7.org/fhir/claimcareteamrole"}]},"sequence":1}],"contained":[{"id":"coverage","resourceType":"Coverage","type":{"text":"private"}}],"extension":[{"url":"https://bluebutton.cms.gov/assets/ig/StructureDefinition-bluebutton-inpatient-ime-op-clm-val-amt-extension","valueMoney":{"code":"USD","system":"urn:iso:std:iso:4217","value":400}},{"url":"https://bluebutton.cms.gov/assets/ig/StructureDefinition-bluebutton-inpatient-dsh-op-clm-val-amt-extension","valueMoney":{"code":"USD","system":"urn:iso:std:iso:4217","value":0}},{"url":"https://bluebutton.cms.gov/assets/ig/StructureDefinition-bluebutton-inpatient-clm-pass-thru-per-diem-amt-extension","valueMoney":{"code":"USD","system":"urn:iso:std:iso:4217","value":0}},{"url":"https://bluebutton.cms.gov/assets/ig/StructureDefinition-bluebutton-inpatient-nch-profnl-cmpnt-chrg-amt-extension","valueMoney":{"code":"USD","system":"urn:iso:std:iso:4217","value":0}},{"url":"https://bluebutton.cms.gov/assets/ig/StructureDefinition-bluebutton-inpatient-clm-tot-pps-cptl-amt-extension","valueMoney":{"code":"USD","system":"urn:iso:std:iso:4217","value":0}},{"url":"https://bluebutton.cms.gov/assets/ig/StructureDefinition-bluebutton-inpatient-nch-bene-ip-ddctbl-amt-extension","valueMoney":{"code":"USD","system":"urn:iso:std:iso:4217","value":0}},{"url":"https://bluebutton.cms.gov/assets/ig/StructureDefinition-bluebutton-inpatient-nch-bene-pta-coinsrnc-lblty-amt-extension","valueMoney":{"code":"USD","system":"urn:iso:std:iso:4217","value":0}},{"url":"https://bluebutton.cms.gov/assets/ig/StructureDefinition-bluebutton-inpatient-nch-ip-ncvrd-chrg-amt-extension","valueMoney":{"code":"USD","system":"urn:iso:std:iso:4217","value":0}},{"url":"https://bluebutton.cms.gov/assets/ig/StructureDefinition-bluebutton-inpatient-nch-ip-tot-ddctn-amt-extension","valueMoney":{"code":"USD","system":"urn:iso:std:iso:4217","value":0}},{"url":"https://bluebutton.cms.gov/assets/ig/StructureDefinition-bluebutton-inpatient-clm-pps-cptl-dsprprtnt-shr-amt-extension","valueMoney":{"code":"USD","system":"urn:iso:std:iso:4217","value":0}},{"url":"https://bluebutton.cms.gov/assets/ig/StructureDefinition-bluebutton-inpatient-clm-pps-cptl-excptn-amt-extension","valueMoney":{"code":"USD","system":"urn:iso:std:iso:4217","value":0}},{"url":"https://bluebutton.cms.gov/assets/ig/StructureDefinition-bluebutton-inpatient-clm-pps-cptl-fsp-amt-extension","valueMoney":{"code":"USD","system":"urn:iso:std:iso:4217","value":0}},{"url":"https://bluebutton.cms.gov/assets/ig/StructureDefinition-bluebutton-inpatient-clm-pps-cptl-ime-amt-extension","valueMoney":{"code":"USD","system":"urn:iso:std:iso:4217","value":400}},{"url":"https://bluebutton.cms.gov/assets/ig/StructureDefinition-bluebutton-inpatient-clm-pps-cptl-outlier-amt-extension","valueMoney":{"code":"USD","system":"urn:iso:std:iso:4217","value":0}},{"url":"https://bluebutton.cms.gov/assets/ig/StructureDefinition-bluebutton-inpatient-clm-pps-old-cptl-hld-hrmls-amt-extension","valueMoney":{"code":"USD","system":"urn:iso:std:iso:4217","value":0}},{"url":"https://bluebutton.cms.gov/assets/ig/StructureDefinition-bluebutton-inpatient-nch-drg-outlier-aprvd-pmt-amt-extension","valueMoney":{"code":"USD","system":"urn:iso:std:iso:4217","value":0}},{"url":"https://bluebutton.cms.gov/assets/ig/StructureDefinition-bluebutton-inpatient-nch-bene-blood-ddctbl-lblty-am-extension","valueMoney":{"code":"USD","system":"urn:iso:std:iso:4217","value":0}},{"url":"https://bluebutton.cms.gov/assets/ig/StructureDefinition-bluebutton-inpatient-clm-mdcr-non-pmt-rsn-cd-extension","valueCoding":{"code":"N","display":"All other reasons for non-payment","system":"https://bluebutton.cms.gov/assets/ig/CodeSystem-clm-mdcr-non-pmt-rsn-cd"}},{"url":"https://bluebutton.cms.gov/assets/ig/StructureDefinition-bluebutton-inpatient-prpayamt-extension","valueMoney":{"code":"USD","system":"urn:iso:std:iso:4217","value":0}},{"url":"https://bluebutton.cms.gov/assets/ig/StructureDefinition-bluebutton-inpatient-fi-num-extension","valueIdentifier":{"system":"https://bluebutton.cms.gov/assets/ig/CodeSystem-fi-num","value":"002000"}}],"id":"e145f4e0-f3b1-43e2-8b3b-810b8a75ae9c","identifier":[{"system":"https://bluebutton.cms.gov/resources/variables/clm_id","value":"5e6b3284-a2fc-426d-ac18-eb355c75cba7"},{"system":"https://bluebutton.cms.gov/resources/identifier/claim-group","value":"99999999999"}],"insurance":{"coverage":{"reference":"#coverage"}},"item":[{"extension":[{"url":"https://bluebutton.cms.gov/assets/ig/StructureDefinition-bluebutton-inpatient-rev-cntr-ndc-qty-extension","valueQuantity":{"value":0}}],"locationCodeableConcept":{"coding":[{"code":"21","display":"Inpatient Hospital","system":"https://bluebutton.cms.gov/resources/variables/line_place_of_srvc_cd"}]},"sequence":1},{"adjudication":[{"amount":{"code":"USD","system":"urn:iso:std:iso:4217","value":3230.4320000000002},"category":{"coding":[{"code":"https://bluebutton.cms.gov/resources/variables/line_coinsrnc_amt","display":"Line Beneficiary Coinsurance Amount","system":"https://bluebutton.cms.gov/resources/codesystem/adjudication"}]}},{"amount":{"code":"USD","system":"urn:iso:std:iso:4217","value":12921.728000000001},"category":{"coding":[{"code":"https://bluebutton.cms.gov/resources/variables/line_prvdr_pmt_amt","display":"Line Provider Payment Amount","system":"https://bluebutton.cms.gov/resources/codesystem/adjudication"}]}},{"amount":{"code":"USD","system":"urn:iso:std:iso:4217","value":16152.16},"category":{"coding":[{"code":"https://bluebutton.cms.gov/resources/variables/line_sbmtd_chrg_amt","display":"Line Submitted Charge Amount","system":"https://bluebutton.cms.gov/resources/codesystem/adjudication"}]}},{"amount":{"code":"USD","system":"urn:iso:std:iso:4217","value":16152.16},"category":{"coding":[{"code":"https://bluebutton.cms.gov/resources/variables/line_alowd_chrg_amt","display":"Line Allowed Charge Amount","system":"https://bluebutton.cms.gov/resources/codesystem/adjudication"}]}},{"amount":{"code":"USD","system":"urn:iso:std:iso:4217","value":0},"category":{"coding":[{"code":"https://bluebutton.cms.gov/resources/variables/line_bene_ptb_ddctbl_amt","display":"Line Beneficiary Part B Deductible Amount","system":"https://bluebutton.cms.gov/resources/codesystem/adjudication"}]}},{"category":{"coding":[{"code":"https://bluebutton.cms.gov/resources/variables/line_prcsg_ind_cd","display":"Line Processing Indicator Code","system":"https://bluebutton.cms.gov/resources/codesystem/adjudication"}]}}],"extension":[{"url":"https://bluebutton.cms.gov/assets/ig/StructureDefinition-bluebutton-inpatient-rev-cntr-ndc-qty-extension","valueQuantity":{"value":0}}],"locationCodeableConcept":{"coding":[{"code":"21","display":"Inpatient Hospital","system":"https://bluebutton.cms.gov/resources/variables/line_place_of_srvc_cd"}]},"sequence":2,"service":{"coding":[{"code":"228557008","system":"http://snomed.info/sct","version":"v1"}]}}],"meta":{"lastUpdated":"2019-04-09T12:03:18.671524+00:00","profile":["https://bluebutton.cms.gov/assets/ig/StructureDefinition-bluebutton-inpatient-claim"],"versionId":"MTU1NDgxMTM5ODY3MTUyNDAwMA"},"organization":{"identifier":{"value":"4d5efb94-acd6-42fa-afdc-e1d894a0a2f7"}},"patient":{"reference":"Patient/0b1c606e-6cbd-4103-b535-6c3d7e9940b4"},"payment":{"amount":{"code":"USD","system":"urn:iso:std:iso:4217","value":12921.728000000001}},"provider":{"identifier":{"value":"b42f2bac-f12b-418d-abb7-03cbcba2919f"}},"resourceType":"ExplanationOfBenefit","status":"active","totalCost":{"code":"USD","system":"urn:iso:std:iso:4217","value":16277.16},"type":{"coding":[{"code":"71","display":"Local carrier non-durable medical equipment, prosthetics, orthotics, and supplies (DMEPOS) claim","system":"https://bluebutton.cms.gov/resources/variables/nch_clm_type_cd"},{"code":"CARRIER","display":"EOB Type","system":"https://bluebutton.cms.gov/resources/codesystem/eob-type"},{"code":"professional","display":"Claim Type","system":"http://hl7.org/fhir/ex-claimtype"},{"code":"O","display":"Part B physician/supplier claim record (processed by local carriers; can include DMEPOS services)","system":"https://bluebutton.cms.gov/resources/variables/nch_near_line_rec_ident_cd"}]}}},{"resource":{"billablePeriod":{"end":"2011-06-18T09:31:08-04:00","extension":[{"url":"https://bluebutton.cms.gov/assets/ig/StructureDefinition-bluebutton-inpatient-claim-query-cd-extension","valueCoding":{"code":"3","display":"Final Bill","system":"https://bluebutton.cms.gov/assets/ig/ValueSet-claim-query-cd"}}],"start":"2010-06-18T09:31:08-04:00"},"careTeam":[{"provider":{"identifier":{"system":"http://hl7.org/fhir/sid/us-npi","value":"99999999"}},"role":{"coding":[{"code":"primary","display":"Primary Care Practitioner","system":"http://hl7.org/fhir/claimcareteamrole"}]},"sequence":1}],"contained":[{"id":"coverage","resourceType":"Coverage","type":{"text":"private"}}],"extension":[{"url":"https://bluebutton.cms.gov/assets/ig/StructureDefinition-bluebutton-inpatient-ime-op-clm-val-amt-extension","valueMoney":{"code":"USD","system":"urn:iso:std:iso:4217","value":400}},{"url":"https://bluebutton.cms.gov/assets/ig/StructureDefinition-bluebutton-inpatient-dsh-op-clm-val-amt-extension","valueMoney":{"code":"USD","system":"urn:iso:std:iso:4217","value":0}},{"url":"https://bluebutton.cms.gov/assets/ig/StructureDefinition-bluebutton-inpatient-clm-pass-thru-per-diem-amt-extension","valueMoney":{"code":"USD","system":"urn:iso:std:iso:4217","value":0}},{"url":"https://bluebutton.cms.gov/assets/ig/StructureDefinition-bluebutton-inpatient-nch-profnl-cmpnt-chrg-amt-extension","valueMoney":{"code":"USD","system":"urn:iso:std:iso:4217","value":0}},{"url":"https://bluebutton.cms.gov/assets/ig/StructureDefinition-bluebutton-inpatient-clm-tot-pps-cptl-amt-extension","valueMoney":{"code":"USD","system":"urn:iso:std:iso:4217","value":0}},{"url":"https://bluebutton.cms.gov/assets/ig/StructureDefinition-bluebutton-inpatient-nch-bene-ip-ddctbl-amt-extension","valueMoney":{"code":"USD","system":"urn:iso:std:iso:4217","value":0}},{"url":"https://bluebutton.cms.gov/assets/ig/StructureDefinition-bluebutton-inpatient-nch-bene-pta-coinsrnc-lblty-amt-extension","valueMoney":{"code":"USD","system":"urn:iso:std:iso:4217","value":0}},{"url":"https://bluebutton.cms.gov/assets/ig/StructureDefinition-bluebutton-inpatient-nch-ip-ncvrd-chrg-amt-extension","valueMoney":{"code":"USD","system":"urn:iso:std:iso:4217","value":0}},{"url":"https://bluebutton.cms.gov/assets/ig/StructureDefinition-bluebutton-inpatient-nch-ip-tot-ddctn-amt-extension","valueMoney":{"code":"USD","system":"urn:iso:std:iso:4217","value":0}},{"url":"https://bluebutton.cms.gov/assets/ig/StructureDefinition-bluebutton-inpatient-clm-pps-cptl-dsprprtnt-shr-amt-extension","valueMoney":{"code":"USD","system":"urn:iso:std:iso:4217","value":0}},{"url":"https://bluebutton.cms.gov/assets/ig/StructureDefinition-bluebutton-inpatient-clm-pps-cptl-excptn-amt-extension","valueMoney":{"code":"USD","system":"urn:iso:std:iso:4217","value":0}},{"url":"https://bluebutton.cms.gov/assets/ig/StructureDefinition-bluebutton-inpatient-clm-pps-cptl-fsp-amt-extension","valueMoney":{"code":"USD","system":"urn:iso:std:iso:4217","value":0}},{"url":"https://bluebutton.cms.gov/assets/ig/StructureDefinition-bluebutton-inpatient-clm-pps-cptl-ime-amt-extension","valueMoney":{"code":"USD","system":"urn:iso:std:iso:4217","value":400}},{"url":"https://bluebutton.cms.gov/assets/ig/StructureDefinition-bluebutton-inpatient-clm-pps-cptl-outlier-amt-extension","valueMoney":{"code":"USD","system":"urn:iso:std:iso:4217","value":0}},{"url":"https://bluebutton.cms.gov/assets/ig/StructureDefinition-bluebutton-inpatient-clm-pps-old-cptl-hld-hrmls-amt-extension","valueMoney":{"code":"USD","system":"urn:iso:std:iso:4217","value":0}},{"url":"https://bluebutton.cms.gov/assets/ig/StructureDefinition-bluebutton-inpatient-nch-drg-outlier-aprvd-pmt-amt-extension","valueMoney":{"code":"USD","system":"urn:iso:std:iso:4217","value":0}},{"url":"https://bluebutton.cms.gov/assets/ig/StructureDefinition-bluebutton-inpatient-nch-bene-blood-ddctbl-lblty-am-extension","valueMoney":{"code":"USD","system":"urn:iso:std:iso:4217","value":0}},{"url":"https://bluebutton.cms.gov/assets/ig/StructureDefinition-bluebutton-inpatient-clm-mdcr-non-pmt-rsn-cd-extension","valueCoding":{"code":"N","display":"All other reasons for non-payment","system":"https://bluebutton.cms.gov/assets/ig/CodeSystem-clm-mdcr-non-pmt-rsn-cd"}},{"url":"https://bluebutton.cms.gov/assets/ig/StructureDefinition-bluebutton-inpatient-prpayamt-extension","valueMoney":{"code":"USD","system":"urn:iso:std:iso:4217","value":0}},{"url":"https://bluebutton.cms.gov/assets/ig/StructureDefinition-bluebutton-inpatient-fi-num-extension","valueIdentifier":{"system":"https://bluebutton.cms.gov/assets/ig/CodeSystem-fi-num","value":"002000"}}],"id":"e2b810e1-4d69-4821-8ae9-5c7484d98ccb","identifier":[{"system":"https://bluebutton.cms.gov/resources/variables/clm_id","value":"6265cc5f-5ecc-481a-86d3-54db374ef1b3"},{"system":"https://bluebutton.cms.gov/resources/identifier/claim-group","value":"99999999999"}],"insurance":{"coverage":{"reference":"#coverage"}},"item":[{"extension":[{"url":"https://bluebutton.cms.gov/assets/ig/StructureDefinition-bluebutton-inpatient-rev-cntr-ndc-qty-extension","valueQuantity":{"value":0}}],"locationCodeableConcept":{"coding":[{"code":"21","display":"Inpatient Hospital","system":"https://bluebutton.cms.gov/resources/variables/line_place_of_srvc_cd"}]},"sequence":1},{"adjudication":[{"amount":{"code":"USD","system":"urn:iso:std:iso:4217","value":1975.5080000000003},"category":{"coding":[{"code":"https://bluebutton.cms.gov/resources/variables/line_coinsrnc_amt","display":"Line Beneficiary Coinsurance Amount","system":"https://bluebutton.cms.gov/resources/codesystem/adjudication"}]}},{"amount":{"code":"USD","system":"urn:iso:std:iso:4217","value":7902.032000000001},"category":{"coding":[{"code":"https://bluebutton.cms.gov/resources/variables/line_prvdr_pmt_amt","display":"Line Provider Payment Amount","system":"https://bluebutton.cms.gov/resources/codesystem/adjudication"}]}},{"amount":{"code":"USD","system":"urn:iso:std:iso:4217","value":9877.54},"category":{"coding":[{"code":"https://bluebutton.cms.gov/resources/variables/line_sbmtd_chrg_amt","display":"Line Submitted Charge Amount","system":"https://bluebutton.cms.gov/resources/codesystem/adjudication"}]}},{"amount":{"code":"USD","system":"urn:iso:std:iso:4217","value":9877.54},"category":{"coding":[{"code":"https://bluebutton.cms.gov/resources/variables/line_alowd_chrg_amt","display":"Line Allowed Charge Amount","system":"https://bluebutton.cms.gov/resources/codesystem/adjudication"}]}},{"amount":{"code":"USD","system":"urn:iso:std:iso:4217","value":0},"category":{"coding":[{"code":"https://bluebutton.cms.gov/resources/variables/line_bene_ptb_ddctbl_amt","display":"Line Beneficiary Part B Deductible Amount","system":"https://bluebutton.cms.gov/resources/codesystem/adjudication"}]}},{"category":{"coding":[{"code":"https://bluebutton.cms.gov/resources/variables/line_prcsg_ind_cd","display":"Line Processing Indicator Code","system":"https://bluebutton.cms.gov/resources/codesystem/adjudication"}]}}],"extension":[{"url":"https://bluebutton.cms.gov/assets/ig/StructureDefinition-bluebutton-inpatient-rev-cntr-ndc-qty-extension","valueQuantity":{"value":0}}],"locationCodeableConcept":{"coding":[{"code":"21","display":"Inpatient Hospital","system":"https://bluebutton.cms.gov/resources/variables/line_place_of_srvc_cd"}]},"sequence":2,"service":{"coding":[{"code":"228557008","system":"http://snomed.info/sct","version":"v1"}]}}],"meta":{"lastUpdated":"2019-04-09T12:03:18.654575+00:00","profile":["https://bluebutton.cms.gov/assets/ig/StructureDefinition-bluebutton-inpatient-claim"],"versionId":"MTU1NDgxMTM5ODY1NDU3NTAwMA"},"organization":{"identifier":{"value":"4d5efb94-acd6-42fa-afdc-e1d894a0a2f7"}},"patient":{"reference":"Patient/0b1c606e-6cbd-4103-b535-6c3d7e9940b4"},"payment":{"amount":{"code":"USD","system":"urn:iso:std:iso:4217","value":7902.032000000001}},"provider":{"identifier":{"value":"b42f2bac-f12b-418d-abb7-03cbcba2919f"}},"resourceType":"ExplanationOfBenefit","status":"active","totalCost":{"code":"USD","system":"urn:iso:std:iso:4217","value":10002.54},"type":{"coding":[{"code":"71","display":"Local carrier non-durable medical equipment, prosthetics, orthotics, and supplies (DMEPOS) claim","system":"https://bluebutton.cms.gov/resources/variables/nch_clm_type_cd"},{"code":"CARRIER","display":"EOB Type","system":"https://bluebutton.cms.gov/resources/codesystem/eob-type"},{"code":"professional","display":"Claim Type","system":"http://hl7.org/fhir/ex-claimtype"},{"code":"O","display":"Part B physician/supplier claim record (processed by local carriers; can include DMEPOS services)","system":"https://bluebutton.cms.gov/resources/variables/nch_near_line_rec_ident_cd"}]}}},{"resource":{"billablePeriod":{"end":"2013-08-05T08:31:08-04:00","extension":[{"url":"https://bluebutton.cms.gov/assets/ig/StructureDefinition-bluebutton-inpatient-claim-query-cd-extension","valueCoding":{"code":"3","display":"Final Bill","system":"https://bluebutton.cms.gov/assets/ig/ValueSet-claim-query-cd"}}],"start":"2012-08-05T08:31:08-04:00"},"careTeam":[{"provider":{"identifier":{"system":"http://hl7.org/fhir/sid/us-npi","value":"99999999"}},"role":{"coding":[{"code":"primary","display":"Primary Care Practitioner","system":"http://hl7.org/fhir/claimcareteamrole"}]},"sequence":1}],"contained":[{"id":"coverage","resourceType":"Coverage","type":{"text":"private"}}],"extension":[{"url":"https://bluebutton.cms.gov/assets/ig/StructureDefinition-bluebutton-inpatient-ime-op-clm-val-amt-extension","valueMoney":{"code":"USD","system":"urn:iso:std:iso:4217","value":400}},{"url":"https://bluebutton.cms.gov/assets/ig/StructureDefinition-bluebutton-inpatient-dsh-op-clm-val-amt-extension","valueMoney":{"code":"USD","system":"urn:iso:std:iso:4217","value":0}},{"url":"https://bluebutton.cms.gov/assets/ig/StructureDefinition-bluebutton-inpatient-clm-pass-thru-per-diem-amt-extension","valueMoney":{"code":"USD","system":"urn:iso:std:iso:4217","value":0}},{"url":"https://bluebutton.cms.gov/assets/ig/StructureDefinition-bluebutton-inpatient-nch-profnl-cmpnt-chrg-amt-extension","valueMoney":{"code":"USD","system":"urn:iso:std:iso:4217","value":0}},{"url":"https://bluebutton.cms.gov/assets/ig/StructureDefinition-bluebutton-inpatient-clm-tot-pps-cptl-amt-extension","valueMoney":{"code":"USD","system":"urn:iso:std:iso:4217","value":0}},{"url":"https://bluebutton.cms.gov/assets/ig/StructureDefinition-bluebutton-inpatient-nch-bene-ip-ddctbl-amt-extension","valueMoney":{"code":"USD","system":"urn:iso:std:iso:4217","value":0}},{"url":"https://bluebutton.cms.gov/assets/ig/StructureDefinition-bluebutton-inpatient-nch-bene-pta-coinsrnc-lblty-amt-extension","valueMoney":{"code":"USD","system":"urn:iso:std:iso:4217","value":0}},{"url":"https://bluebutton.cms.gov/assets/ig/StructureDefinition-bluebutton-inpatient-nch-ip-ncvrd-chrg-amt-extension","valueMoney":{"code":"USD","system":"urn:iso:std:iso:4217","value":0}},{"url":"https://bluebutton.cms.gov/assets/ig/StructureDefinition-bluebutton-inpatient-nch-ip-tot-ddctn-amt-extension","valueMoney":{"code":"USD","system":"urn:iso:std:iso:4217","value":0}},{"url":"https://bluebutton.cms.gov/assets/ig/StructureDefinition-bluebutton-inpatient-clm-pps-cptl-dsprprtnt-shr-amt-extension","valueMoney":{"code":"USD","system":"urn:iso:std:iso:4217","value":0}},{"url":"https://bluebutton.cms.gov/assets/ig/StructureDefinition-bluebutton-inpatient-clm-pps-cptl-excptn-amt-extension","valueMoney":{"code":"USD","system":"urn:iso:std:iso:4217","value":0}},{"url":"https://bluebutton.cms.gov/assets/ig/StructureDefinition-bluebutton-inpatient-clm-pps-cptl-fsp-amt-extension","valueMoney":{"code":"USD","system":"urn:iso:std:iso:4217","value":0}},{"url":"https://bluebutton.cms.gov/assets/ig/StructureDefinition-bluebutton-inpatient-clm-pps-cptl-ime-amt-extension","valueMoney":{"code":"USD","system":"urn:iso:std:iso:4217","value":400}},{"url":"https://bluebutton.cms.gov/assets/ig/StructureDefinition-bluebutton-inpatient-clm-pps-cptl-outlier-amt-extension","valueMoney":{"code":"USD","system":"urn:iso:std:iso:4217","value":0}},{"url":"https://bluebutton.cms.gov/assets/ig/StructureDefinition-bluebutton-inpatient-clm-pps-old-cptl-hld-hrmls-amt-extension","valueMoney":{"code":"USD","system":"urn:iso:std:iso:4217","value":0}},{"url":"https://bluebutton.cms.gov/assets/ig/StructureDefinition-bluebutton-inpatient-nch-drg-outlier-aprvd-pmt-amt-extension","valueMoney":{"code":"USD","system":"urn:iso:std:iso:4217","value":0}},{"url":"https://bluebutton.cms.gov/assets/ig/StructureDefinition-bluebutton-inpatient-nch-bene-blood-ddctbl-lblty-am-extension","valueMoney":{"code":"USD","system":"urn:iso:std:iso:4217","value":0}},{"url":"https://bluebutton.cms.gov/assets/ig/StructureDefinition-bluebutton-inpatient-clm-mdcr-non-pmt-rsn-cd-extension","valueCoding":{"code":"N","display":"All other reasons for non-payment","system":"https://bluebutton.cms.gov/assets/ig/CodeSystem-clm-mdcr-non-pmt-rsn-cd"}},{"url":"https://bluebutton.cms.gov/assets/ig/StructureDefinition-bluebutton-inpatient-prpayamt-extension","valueMoney":{"code":"USD","system":"urn:iso:std:iso:4217","value":0}},{"url":"https://bluebutton.cms.gov/assets/ig/StructureDefinition-bluebutton-inpatient-fi-num-extension","valueIdentifier":{"system":"https://bluebutton.cms.gov/assets/ig/CodeSystem-fi-num","value":"002000"}}],"id":"e2c3fd9b-9361-4cd2-ba8f-6c898ba32f0e","identifier":[{"system":"https://bluebutton.cms.gov/resources/variables/clm_id","value":"01dc8039-286e-4bdb-8d61-71a2eae9dbb6"},{"system":"https://bluebutton.cms.gov/resources/identifier/claim-group","value":"99999999999"}],"insurance":{"coverage":{"reference":"#coverage"}},"item":[{"extension":[{"url":"https://bluebutton.cms.gov/assets/ig/StructureDefinition-bluebutton-inpatient-rev-cntr-ndc-qty-extension","valueQuantity":{"value":0}}],"locationCodeableConcept":{"coding":[{"code":"21","display":"Inpatient Hospital","system":"https://bluebutton.cms.gov/resources/variables/line_place_of_srvc_cd"}]},"sequence":1}],"meta":{"lastUpdated":"2019-04-09T12:03:19.707042+00:00","profile":["https://bluebutton.cms.gov/assets/ig/StructureDefinition-bluebutton-inpatient-claim"],"versionId":"MTU1NDgxMTM5OTcwNzA0MjAwMA"},"organization":{"identifier":{"value":"4d5efb94-acd6-42fa-afdc-e1d894a0a2f7"}},"patient":{"reference":"Patient/0b1c606e-6cbd-4103-b535-6c3d7e9940b4"},"payment":{"amount":{"code":"USD","system":"urn:iso:std:iso:4217","value":0}},"provider":{"identifier":{"value":"b42f2bac-f12b-418d-abb7-03cbcba2919f"}},"resourceType":"ExplanationOfBenefit","status":"active","totalCost":{"code":"USD","system":"urn:iso:std:iso:4217","value":125},"type":{"coding":[{"code":"71","display":"Local carrier non-durable medical equipment, prosthetics, orthotics, and supplies (DMEPOS) claim","system":"https://bluebutton.cms.gov/resources/variables/nch_clm_type_cd"},{"code":"CARRIER","display":"EOB Type","system":"https://bluebutton.cms.gov/resources/codesystem/eob-type"},{"code":"professional","display":"Claim Type","system":"http://hl7.org/fhir/ex-claimtype"},{"code":"O","display":"Part B physician/supplier claim record (processed by local carriers; can include DMEPOS services)","system":"https://bluebutton.cms.gov/resources/variables/nch_near_line_rec_ident_cd"}]}}},{"resource":{"billablePeriod":{"end":"2013-12-28T08:31:08-05:00","extension":[{"url":"https://bluebutton.cms.gov/assets/ig/StructureDefinition-bluebutton-inpatient-claim-query-cd-extension","valueCoding":{"code":"3","display":"Final Bill","system":"https://bluebutton.cms.gov/assets/ig/ValueSet-claim-query-cd"}}],"start":"2012-12-28T08:31:08-05:00"},"careTeam":[{"provider":{"identifier":{"system":"http://hl7.org/fhir/sid/us-npi","value":"99999999"}},"role":{"coding":[{"code":"primary","display":"Primary Care Practitioner","system":"http://hl7.org/fhir/claimcareteamrole"}]},"sequence":1}],"contained":[{"id":"coverage","resourceType":"Coverage","type":{"text":"private"}}],"extension":[{"url":"https://bluebutton.cms.gov/assets/ig/StructureDefinition-bluebutton-inpatient-ime-op-clm-val-amt-extension","valueMoney":{"code":"USD","system":"urn:iso:std:iso:4217","value":400}},{"url":"https://bluebutton.cms.gov/assets/ig/StructureDefinition-bluebutton-inpatient-dsh-op-clm-val-amt-extension","valueMoney":{"code":"USD","system":"urn:iso:std:iso:4217","value":0}},{"url":"https://bluebutton.cms.gov/assets/ig/StructureDefinition-bluebutton-inpatient-clm-pass-thru-per-diem-amt-extension","valueMoney":{"code":"USD","system":"urn:iso:std:iso:4217","value":0}},{"url":"https://bluebutton.cms.gov/assets/ig/StructureDefinition-bluebutton-inpatient-nch-profnl-cmpnt-chrg-amt-extension","valueMoney":{"code":"USD","system":"urn:iso:std:iso:4217","value":0}},{"url":"https://bluebutton.cms.gov/assets/ig/StructureDefinition-bluebutton-inpatient-clm-tot-pps-cptl-amt-extension","valueMoney":{"code":"USD","system":"urn:iso:std:iso:4217","value":0}},{"url":"https://bluebutton.cms.gov/assets/ig/StructureDefinition-bluebutton-inpatient-nch-bene-ip-ddctbl-amt-extension","valueMoney":{"code":"USD","system":"urn:iso:std:iso:4217","value":0}},{"url":"https://bluebutton.cms.gov/assets/ig/StructureDefinition-bluebutton-inpatient-nch-bene-pta-coinsrnc-lblty-amt-extension","valueMoney":{"code":"USD","system":"urn:iso:std:iso:4217","value":0}},{"url":"https://bluebutton.cms.gov/assets/ig/StructureDefinition-bluebutton-inpatient-nch-ip-ncvrd-chrg-amt-extension","valueMoney":{"code":"USD","system":"urn:iso:std:iso:4217","value":0}},{"url":"https://bluebutton.cms.gov/assets/ig/StructureDefinition-bluebutton-inpatient-nch-ip-tot-ddctn-amt-extension","valueMoney":{"code":"USD","system":"urn:iso:std:iso:4217","value":0}},{"url":"https://bluebutton.cms.gov/assets/ig/StructureDefinition-bluebutton-inpatient-clm-pps-cptl-dsprprtnt-shr-amt-extension","valueMoney":{"code":"USD","system":"urn:iso:std:iso:4217","value":0}},{"url":"https://bluebutton.cms.gov/assets/ig/StructureDefinition-bluebutton-inpatient-clm-pps-cptl-excptn-amt-extension","valueMoney":{"code":"USD","system":"urn:iso:std:iso:4217","value":0}},{"url":"https://bluebutton.cms.gov/assets/ig/StructureDefinition-bluebutton-inpatient-clm-pps-cptl-fsp-amt-extension","valueMoney":{"code":"USD","system":"urn:iso:std:iso:4217","value":0}},{"url":"https://bluebutton.cms.gov/assets/ig/StructureDefinition-bluebutton-inpatient-clm-pps-cptl-ime-amt-extension","valueMoney":{"code":"USD","system":"urn:iso:std:iso:4217","value":400}},{"url":"https://bluebutton.cms.gov/assets/ig/StructureDefinition-bluebutton-inpatient-clm-pps-cptl-outlier-amt-extension","valueMoney":{"code":"USD","system":"urn:iso:std:iso:4217","value":0}},{"url":"https://bluebutton.cms.gov/assets/ig/StructureDefinition-bluebutton-inpatient-clm-pps-old-cptl-hld-hrmls-amt-extension","valueMoney":{"code":"USD","system":"urn:iso:std:iso:4217","value":0}},{"url":"https://bluebutton.cms.gov/assets/ig/StructureDefinition-bluebutton-inpatient-nch-drg-outlier-aprvd-pmt-amt-extension","valueMoney":{"code":"USD","system":"urn:iso:std:iso:4217","value":0}},{"url":"https://bluebutton.cms.gov/assets/ig/StructureDefinition-bluebutton-inpatient-nch-bene-blood-ddctbl-lblty-am-extension","valueMoney":{"code":"USD","system":"urn:iso:std:iso:4217","value":0}},{"url":"https://bluebutton.cms.gov/assets/ig/StructureDefinition-bluebutton-inpatient-clm-mdcr-non-pmt-rsn-cd-extension","valueCoding":{"code":"N","display":"All other reasons for non-payment","system":"https://bluebutton.cms.gov/assets/ig/CodeSystem-clm-mdcr-non-pmt-rsn-cd"}},{"url":"https://bluebutton.cms.gov/assets/ig/StructureDefinition-bluebutton-inpatient-prpayamt-extension","valueMoney":{"code":"USD","system":"urn:iso:std:iso:4217","value":0}},{"url":"https://bluebutton.cms.gov/assets/ig/StructureDefinition-bluebutton-inpatient-fi-num-extension","valueIdentifier":{"system":"https://bluebutton.cms.gov/assets/ig/CodeSystem-fi-num","value":"002000"}}],"id":"e8ba8ba0-9866-44cf-baeb-16bd1ec6be9f","identifier":[{"system":"https://bluebutton.cms.gov/resources/variables/clm_id","value":"5343ff2b-dc7f-4d5e-98f7-f791c0a3576a"},{"system":"https://bluebutton.cms.gov/resources/identifier/claim-group","value":"99999999999"}],"insurance":{"coverage":{"reference":"#coverage"}},"item":[{"extension":[{"url":"https://bluebutton.cms.gov/assets/ig/StructureDefinition-bluebutton-inpatient-rev-cntr-ndc-qty-extension","valueQuantity":{"value":0}}],"locationCodeableConcept":{"coding":[{"code":"21","display":"Inpatient Hospital","system":"https://bluebutton.cms.gov/resources/variables/line_place_of_srvc_cd"}]},"sequence":1},{"adjudication":[{"amount":{"code":"USD","system":"urn:iso:std:iso:4217","value":1780.0439999999999},"category":{"coding":[{"code":"https://bluebutton.cms.gov/resources/variables/line_coinsrnc_amt","display":"Line Beneficiary Coinsurance Amount","system":"https://bluebutton.cms.gov/resources/codesystem/adjudication"}]}},{"amount":{"code":"USD","system":"urn:iso:std:iso:4217","value":7120.1759999999995},"category":{"coding":[{"code":"https://bluebutton.cms.gov/resources/variables/line_prvdr_pmt_amt","display":"Line Provider Payment Amount","system":"https://bluebutton.cms.gov/resources/codesystem/adjudication"}]}},{"amount":{"code":"USD","system":"urn:iso:std:iso:4217","value":8900.22},"category":{"coding":[{"code":"https://bluebutton.cms.gov/resources/variables/line_sbmtd_chrg_amt","display":"Line Submitted Charge Amount","system":"https://bluebutton.cms.gov/resources/codesystem/adjudication"}]}},{"amount":{"code":"USD","system":"urn:iso:std:iso:4217","value":8900.22},"category":{"coding":[{"code":"https://bluebutton.cms.gov/resources/variables/line_alowd_chrg_amt","display":"Line Allowed Charge Amount","system":"https://bluebutton.cms.gov/resources/codesystem/adjudication"}]}},{"amount":{"code":"USD","system":"urn:iso:std:iso:4217","value":0},"category":{"coding":[{"code":"https://bluebutton.cms.gov/resources/variables/line_bene_ptb_ddctbl_amt","display":"Line Beneficiary Part B Deductible Amount","system":"https://bluebutton.cms.gov/resources/codesystem/adjudication"}]}},{"category":{"coding":[{"code":"https://bluebutton.cms.gov/resources/variables/line_prcsg_ind_cd","display":"Line Processing Indicator Code","system":"https://bluebutton.cms.gov/resources/codesystem/adjudication"}]}}],"extension":[{"url":"https://bluebutton.cms.gov/assets/ig/StructureDefinition-bluebutton-inpatient-rev-cntr-ndc-qty-extension","valueQuantity":{"value":0}}],"locationCodeableConcept":{"coding":[{"code":"21","display":"Inpatient Hospital","system":"https://bluebutton.cms.gov/resources/variables/line_place_of_srvc_cd"}]},"sequence":2,"service":{"coding":[{"code":"228557008","system":"http://snomed.info/sct","version":"v1"}]}}],"meta":{"lastUpdated":"2019-04-09T12:03:19.702085+00:00","profile":["https://bluebutton.cms.gov/assets/ig/StructureDefinition-bluebutton-inpatient-claim"],"versionId":"MTU1NDgxMTM5OTcwMjA4NTAwMA"},"organization":{"identifier":{"value":"4d5efb94-acd6-42fa-afdc-e1d894a0a2f7"}},"patient":{"reference":"Patient/0b1c606e-6cbd-4103-b535-6c3d7e9940b4"},"payment":{"amount":{"code":"USD","system":"urn:iso:std:iso:4217","value":7120.1759999999995}},"provider":{"identifier":{"value":"b42f2bac-f12b-418d-abb7-03cbcba2919f"}},"resourceType":"ExplanationOfBenefit","status":"active","totalCost":{"code":"USD","system":"urn:iso:std:iso:4217","value":9025.22},"type":{"coding":[{"code":"71","display":"Local carrier non-durable medical equipment, prosthetics, orthotics, and supplies (DMEPOS) claim","system":"https://bluebutton.cms.gov/resources/variables/nch_clm_type_cd"},{"code":"CARRIER","display":"EOB Type","system":"https://bluebutton.cms.gov/resources/codesystem/eob-type"},{"code":"professional","display":"Claim Type","system":"http://hl7.org/fhir/ex-claimtype"},{"code":"O","display":"Part B physician/supplier claim record (processed by local carriers; can include DMEPOS services)","system":"https://bluebutton.cms.gov/resources/variables/nch_near_line_rec_ident_cd"}]}}},{"resource":{"billablePeriod":{"end":"2014-08-30T09:31:08-04:00","extension":[{"url":"https://bluebutton.cms.gov/assets/ig/StructureDefinition-bluebutton-inpatient-claim-query-cd-extension","valueCoding":{"code":"3","display":"Final Bill","system":"https://bluebutton.cms.gov/assets/ig/ValueSet-claim-query-cd"}}],"start":"2013-08-30T09:31:08-04:00"},"careTeam":[{"provider":{"identifier":{"system":"http://hl7.org/fhir/sid/us-npi","value":"99999999"}},"role":{"coding":[{"code":"primary","display":"Primary Care Practitioner","system":"http://hl7.org/fhir/claimcareteamrole"}]},"sequence":1}],"contained":[{"id":"coverage","resourceType":"Coverage","type":{"text":"private"}}],"extension":[{"url":"https://bluebutton.cms.gov/assets/ig/StructureDefinition-bluebutton-inpatient-ime-op-clm-val-amt-extension","valueMoney":{"code":"USD","system":"urn:iso:std:iso:4217","value":400}},{"url":"https://bluebutton.cms.gov/assets/ig/StructureDefinition-bluebutton-inpatient-dsh-op-clm-val-amt-extension","valueMoney":{"code":"USD","system":"urn:iso:std:iso:4217","value":0}},{"url":"https://bluebutton.cms.gov/assets/ig/StructureDefinition-bluebutton-inpatient-clm-pass-thru-per-diem-amt-extension","valueMoney":{"code":"USD","system":"urn:iso:std:iso:4217","value":0}},{"url":"https://bluebutton.cms.gov/assets/ig/StructureDefinition-bluebutton-inpatient-nch-profnl-cmpnt-chrg-amt-extension","valueMoney":{"code":"USD","system":"urn:iso:std:iso:4217","value":0}},{"url":"https://bluebutton.cms.gov/assets/ig/StructureDefinition-bluebutton-inpatient-clm-tot-pps-cptl-amt-extension","valueMoney":{"code":"USD","system":"urn:iso:std:iso:4217","value":0}},{"url":"https://bluebutton.cms.gov/assets/ig/StructureDefinition-bluebutton-inpatient-nch-bene-ip-ddctbl-amt-extension","valueMoney":{"code":"USD","system":"urn:iso:std:iso:4217","value":0}},{"url":"https://bluebutton.cms.gov/assets/ig/StructureDefinition-bluebutton-inpatient-nch-bene-pta-coinsrnc-lblty-amt-extension","valueMoney":{"code":"USD","system":"urn:iso:std:iso:4217","value":0}},{"url":"https://bluebutton.cms.gov/assets/ig/StructureDefinition-bluebutton-inpatient-nch-ip-ncvrd-chrg-amt-extension","valueMoney":{"code":"USD","system":"urn:iso:std:iso:4217","value":0}},{"url":"https://bluebutton.cms.gov/assets/ig/StructureDefinition-bluebutton-inpatient-nch-ip-tot-ddctn-amt-extension","valueMoney":{"code":"USD","system":"urn:iso:std:iso:4217","value":0}},{"url":"https://bluebutton.cms.gov/assets/ig/StructureDefinition-bluebutton-inpatient-clm-pps-cptl-dsprprtnt-shr-amt-extension","valueMoney":{"code":"USD","system":"urn:iso:std:iso:4217","value":0}},{"url":"https://bluebutton.cms.gov/assets/ig/StructureDefinition-bluebutton-inpatient-clm-pps-cptl-excptn-amt-extension","valueMoney":{"code":"USD","system":"urn:iso:std:iso:4217","value":0}},{"url":"https://bluebutton.cms.gov/assets/ig/StructureDefinition-bluebutton-inpatient-clm-pps-cptl-fsp-amt-extension","valueMoney":{"code":"USD","system":"urn:iso:std:iso:4217","value":0}},{"url":"https://bluebutton.cms.gov/assets/ig/StructureDefinition-bluebutton-inpatient-clm-pps-cptl-ime-amt-extension","valueMoney":{"code":"USD","system":"urn:iso:std:iso:4217","value":400}},{"url":"https://bluebutton.cms.gov/assets/ig/StructureDefinition-bluebutton-inpatient-clm-pps-cptl-outlier-amt-extension","valueMoney":{"code":"USD","system":"urn:iso:std:iso:4217","value":0}},{"url":"https://bluebutton.cms.gov/assets/ig/StructureDefinition-bluebutton-inpatient-clm-pps-old-cptl-hld-hrmls-amt-extension","valueMoney":{"code":"USD","system":"urn:iso:std:iso:4217","value":0}},{"url":"https://bluebutton.cms.gov/assets/ig/StructureDefinition-bluebutton-inpatient-nch-drg-outlier-aprvd-pmt-amt-extension","valueMoney":{"code":"USD","system":"urn:iso:std:iso:4217","value":0}},{"url":"https://bluebutton.cms.gov/assets/ig/StructureDefinition-bluebutton-inpatient-nch-bene-blood-ddctbl-lblty-am-extension","valueMoney":{"code":"USD","system":"urn:iso:std:iso:4217","value":0}},{"url":"https://bluebutton.cms.gov/assets/ig/StructureDefinition-bluebutton-inpatient-clm-mdcr-non-pmt-rsn-cd-extension","valueCoding":{"code":"N","display":"All other reasons for non-payment","system":"https://bluebutton.cms.gov/assets/ig/CodeSystem-clm-mdcr-non-pmt-rsn-cd"}},{"url":"https://bluebutton.cms.gov/assets/ig/StructureDefinition-bluebutton-inpatient-prpayamt-extension","valueMoney":{"code":"USD","system":"urn:iso:std:iso:4217","value":0}},{"url":"https://bluebutton.cms.gov/assets/ig/StructureDefinition-bluebutton-inpatient-fi-num-extension","valueIdentifier":{"system":"https://bluebutton.cms.gov/assets/ig/CodeSystem-fi-num","value":"002000"}}],"id":"eb9285b7-27f7-4909-ae17-e6bb6a713817","identifier":[{"system":"https://bluebutton.cms.gov/resources/variables/clm_id","value":"df16e554-a8bf-4e12-bc8e-3552006710af"},{"system":"https://bluebutton.cms.gov/resources/identifier/claim-group","value":"99999999999"}],"insurance":{"coverage":{"reference":"#coverage"}},"item":[{"extension":[{"url":"https://bluebutton.cms.gov/assets/ig/StructureDefinition-bluebutton-inpatient-rev-cntr-ndc-qty-extension","valueQuantity":{"value":0}}],"locationCodeableConcept":{"coding":[{"code":"21","display":"Inpatient Hospital","system":"https://bluebutton.cms.gov/resources/variables/line_place_of_srvc_cd"}]},"sequence":1},{"adjudication":[{"amount":{"code":"USD","system":"urn:iso:std:iso:4217","value":3464.4480000000003},"category":{"coding":[{"code":"https://bluebutton.cms.gov/resources/variables/line_coinsrnc_amt","display":"Line Beneficiary Coinsurance Amount","system":"https://bluebutton.cms.gov/resources/codesystem/adjudication"}]}},{"amount":{"code":"USD","system":"urn:iso:std:iso:4217","value":13857.792000000001},"category":{"coding":[{"code":"https://bluebutton.cms.gov/resources/variables/line_prvdr_pmt_amt","display":"Line Provider Payment Amount","system":"https://bluebutton.cms.gov/resources/codesystem/adjudication"}]}},{"amount":{"code":"USD","system":"urn:iso:std:iso:4217","value":17322.24},"category":{"coding":[{"code":"https://bluebutton.cms.gov/resources/variables/line_sbmtd_chrg_amt","display":"Line Submitted Charge Amount","system":"https://bluebutton.cms.gov/resources/codesystem/adjudication"}]}},{"amount":{"code":"USD","system":"urn:iso:std:iso:4217","value":17322.24},"category":{"coding":[{"code":"https://bluebutton.cms.gov/resources/variables/line_alowd_chrg_amt","display":"Line Allowed Charge Amount","system":"https://bluebutton.cms.gov/resources/codesystem/adjudication"}]}},{"amount":{"code":"USD","system":"urn:iso:std:iso:4217","value":0},"category":{"coding":[{"code":"https://bluebutton.cms.gov/resources/variables/line_bene_ptb_ddctbl_amt","display":"Line Beneficiary Part B Deductible Amount","system":"https://bluebutton.cms.gov/resources/codesystem/adjudication"}]}},{"category":{"coding":[{"code":"https://bluebutton.cms.gov/resources/variables/line_prcsg_ind_cd","display":"Line Processing Indicator Code","system":"https://bluebutton.cms.gov/resources/codesystem/adjudication"}]}}],"extension":[{"url":"https://bluebutton.cms.gov/assets/ig/StructureDefinition-bluebutton-inpatient-rev-cntr-ndc-qty-extension","valueQuantity":{"value":0}}],"locationCodeableConcept":{"coding":[{"code":"21","display":"Inpatient Hospital","system":"https://bluebutton.cms.gov/resources/variables/line_place_of_srvc_cd"}]},"sequence":2,"service":{"coding":[{"code":"228557008","system":"http://snomed.info/sct","version":"v1"}]}}],"meta":{"lastUpdated":"2019-04-09T12:03:19.713275+00:00","profile":["https://bluebutton.cms.gov/assets/ig/StructureDefinition-bluebutton-inpatient-claim"],"versionId":"MTU1NDgxMTM5OTcxMzI3NTAwMA"},"organization":{"identifier":{"value":"4d5efb94-acd6-42fa-afdc-e1d894a0a2f7"}},"patient":{"reference":"Patient/0b1c606e-6cbd-4103-b535-6c3d7e9940b4"},"payment":{"amount":{"code":"USD","system":"urn:iso:std:iso:4217","value":13857.792000000001}},"provider":{"identifier":{"value":"b42f2bac-f12b-418d-abb7-03cbcba2919f"}},"resourceType":"ExplanationOfBenefit","status":"active","totalCost":{"code":"USD","system":"urn:iso:std:iso:4217","value":17447.24},"type":{"coding":[{"code":"71","display":"Local carrier non-durable medical equipment, prosthetics, orthotics, and supplies (DMEPOS) claim","system":"https://bluebutton.cms.gov/resources/variables/nch_clm_type_cd"},{"code":"CARRIER","display":"EOB Type","system":"https://bluebutton.cms.gov/resources/codesystem/eob-type"},{"code":"professional","display":"Claim Type","system":"http://hl7.org/fhir/ex-claimtype"},{"code":"O","display":"Part B physician/supplier claim record (processed by local carriers; can include DMEPOS services)","system":"https://bluebutton.cms.gov/resources/variables/nch_near_line_rec_ident_cd"}]}}},{"resource":{"billablePeriod":{"end":"2013-09-21T09:31:08-04:00","extension":[{"url":"https://bluebutton.cms.gov/assets/ig/StructureDefinition-bluebutton-inpatient-claim-query-cd-extension","valueCoding":{"code":"3","display":"Final Bill","system":"https://bluebutton.cms.gov/assets/ig/ValueSet-claim-query-cd"}}],"start":"2012-09-21T09:31:08-04:00"},"careTeam":[{"provider":{"identifier":{"system":"http://hl7.org/fhir/sid/us-npi","value":"99999999"}},"role":{"coding":[{"code":"primary","display":"Primary Care Practitioner","system":"http://hl7.org/fhir/claimcareteamrole"}]},"sequence":1}],"contained":[{"id":"coverage","resourceType":"Coverage","type":{"text":"private"}}],"extension":[{"url":"https://bluebutton.cms.gov/assets/ig/StructureDefinition-bluebutton-inpatient-ime-op-clm-val-amt-extension","valueMoney":{"code":"USD","system":"urn:iso:std:iso:4217","value":400}},{"url":"https://bluebutton.cms.gov/assets/ig/StructureDefinition-bluebutton-inpatient-dsh-op-clm-val-amt-extension","valueMoney":{"code":"USD","system":"urn:iso:std:iso:4217","value":0}},{"url":"https://bluebutton.cms.gov/assets/ig/StructureDefinition-bluebutton-inpatient-clm-pass-thru-per-diem-amt-extension","valueMoney":{"code":"USD","system":"urn:iso:std:iso:4217","value":0}},{"url":"https://bluebutton.cms.gov/assets/ig/StructureDefinition-bluebutton-inpatient-nch-profnl-cmpnt-chrg-amt-extension","valueMoney":{"code":"USD","system":"urn:iso:std:iso:4217","value":0}},{"url":"https://bluebutton.cms.gov/assets/ig/StructureDefinition-bluebutton-inpatient-clm-tot-pps-cptl-amt-extension","valueMoney":{"code":"USD","system":"urn:iso:std:iso:4217","value":0}},{"url":"https://bluebutton.cms.gov/assets/ig/StructureDefinition-bluebutton-inpatient-nch-bene-ip-ddctbl-amt-extension","valueMoney":{"code":"USD","system":"urn:iso:std:iso:4217","value":0}},{"url":"https://bluebutton.cms.gov/assets/ig/StructureDefinition-bluebutton-inpatient-nch-bene-pta-coinsrnc-lblty-amt-extension","valueMoney":{"code":"USD","system":"urn:iso:std:iso:4217","value":0}},{"url":"https://bluebutton.cms.gov/assets/ig/StructureDefinition-bluebutton-inpatient-nch-ip-ncvrd-chrg-amt-extension","valueMoney":{"code":"USD","system":"urn:iso:std:iso:4217","value":0}},{"url":"https://bluebutton.cms.gov/assets/ig/StructureDefinition-bluebutton-inpatient-nch-ip-tot-ddctn-amt-extension","valueMoney":{"code":"USD","system":"urn:iso:std:iso:4217","value":0}},{"url":"https://bluebutton.cms.gov/assets/ig/StructureDefinition-bluebutton-inpatient-clm-pps-cptl-dsprprtnt-shr-amt-extension","valueMoney":{"code":"USD","system":"urn:iso:std:iso:4217","value":0}},{"url":"https://bluebutton.cms.gov/assets/ig/StructureDefinition-bluebutton-inpatient-clm-pps-cptl-excptn-amt-extension","valueMoney":{"code":"USD","system":"urn:iso:std:iso:4217","value":0}},{"url":"https://bluebutton.cms.gov/assets/ig/StructureDefinition-bluebutton-inpatient-clm-pps-cptl-fsp-amt-extension","valueMoney":{"code":"USD","system":"urn:iso:std:iso:4217","value":0}},{"url":"https://bluebutton.cms.gov/assets/ig/StructureDefinition-bluebutton-inpatient-clm-pps-cptl-ime-amt-extension","valueMoney":{"code":"USD","system":"urn:iso:std:iso:4217","value":400}},{"url":"https://bluebutton.cms.gov/assets/ig/StructureDefinition-bluebutton-inpatient-clm-pps-cptl-outlier-amt-extension","valueMoney":{"code":"USD","system":"urn:iso:std:iso:4217","value":0}},{"url":"https://bluebutton.cms.gov/assets/ig/StructureDefinition-bluebutton-inpatient-clm-pps-old-cptl-hld-hrmls-amt-extension","valueMoney":{"code":"USD","system":"urn:iso:std:iso:4217","value":0}},{"url":"https://bluebutton.cms.gov/assets/ig/StructureDefinition-bluebutton-inpatient-nch-drg-outlier-aprvd-pmt-amt-extension","valueMoney":{"code":"USD","system":"urn:iso:std:iso:4217","value":0}},{"url":"https://bluebutton.cms.gov/assets/ig/StructureDefinition-bluebutton-inpatient-nch-bene-blood-ddctbl-lblty-am-extension","valueMoney":{"code":"USD","system":"urn:iso:std:iso:4217","value":0}},{"url":"https://bluebutton.cms.gov/assets/ig/StructureDefinition-bluebutton-inpatient-clm-mdcr-non-pmt-rsn-cd-extension","valueCoding":{"code":"N","display":"All other reasons for non-payment","system":"https://bluebutton.cms.gov/assets/ig/CodeSystem-clm-mdcr-non-pmt-rsn-cd"}},{"url":"https://bluebutton.cms.gov/assets/ig/StructureDefinition-bluebutton-inpatient-prpayamt-extension","valueMoney":{"code":"USD","system":"urn:iso:std:iso:4217","value":0}},{"url":"https://bluebutton.cms.gov/assets/ig/StructureDefinition-bluebutton-inpatient-fi-num-extension","valueIdentifier":{"system":"https://bluebutton.cms.gov/assets/ig/CodeSystem-fi-num","value":"002000"}}],"id":"efe04696-68cb-4320-bd65-c93d6116621f","identifier":[{"system":"https://bluebutton.cms.gov/resources/variables/clm_id","value":"79919e87-6ea1-465b-b83a-5424397aac51"},{"system":"https://bluebutton.cms.gov/resources/identifier/claim-group","value":"99999999999"}],"insurance":{"coverage":{"reference":"#coverage"}},"item":[{"extension":[{"url":"https://bluebutton.cms.gov/assets/ig/StructureDefinition-bluebutton-inpatient-rev-cntr-ndc-qty-extension","valueQuantity":{"value":0}}],"locationCodeableConcept":{"coding":[{"code":"21","display":"Inpatient Hospital","system":"https://bluebutton.cms.gov/resources/variables/line_place_of_srvc_cd"}]},"sequence":1},{"adjudication":[{"amount":{"code":"USD","system":"urn:iso:std:iso:4217","value":2962.8680000000004},"category":{"coding":[{"code":"https://bluebutton.cms.gov/resources/variables/line_coinsrnc_amt","display":"Line Beneficiary Coinsurance Amount","system":"https://bluebutton.cms.gov/resources/codesystem/adjudication"}]}},{"amount":{"code":"USD","system":"urn:iso:std:iso:4217","value":11851.472000000002},"category":{"coding":[{"code":"https://bluebutton.cms.gov/resources/variables/line_prvdr_pmt_amt","display":"Line Provider Payment Amount","system":"https://bluebutton.cms.gov/resources/codesystem/adjudication"}]}},{"amount":{"code":"USD","system":"urn:iso:std:iso:4217","value":14814.34},"category":{"coding":[{"code":"https://bluebutton.cms.gov/resources/variables/line_sbmtd_chrg_amt","display":"Line Submitted Charge Amount","system":"https://bluebutton.cms.gov/resources/codesystem/adjudication"}]}},{"amount":{"code":"USD","system":"urn:iso:std:iso:4217","value":14814.34},"category":{"coding":[{"code":"https://bluebutton.cms.gov/resources/variables/line_alowd_chrg_amt","display":"Line Allowed Charge Amount","system":"https://bluebutton.cms.gov/resources/codesystem/adjudication"}]}},{"amount":{"code":"USD","system":"urn:iso:std:iso:4217","value":0},"category":{"coding":[{"code":"https://bluebutton.cms.gov/resources/variables/line_bene_ptb_ddctbl_amt","display":"Line Beneficiary Part B Deductible Amount","system":"https://bluebutton.cms.gov/resources/codesystem/adjudication"}]}},{"category":{"coding":[{"code":"https://bluebutton.cms.gov/resources/variables/line_prcsg_ind_cd","display":"Line Processing Indicator Code","system":"https://bluebutton.cms.gov/resources/codesystem/adjudication"}]}}],"extension":[{"url":"https://bluebutton.cms.gov/assets/ig/StructureDefinition-bluebutton-inpatient-rev-cntr-ndc-qty-extension","valueQuantity":{"value":0}}],"locationCodeableConcept":{"coding":[{"code":"21","display":"Inpatient Hospital","system":"https://bluebutton.cms.gov/resources/variables/line_place_of_srvc_cd"}]},"sequence":2,"service":{"coding":[{"code":"228557008","system":"http://snomed.info/sct","version":"v1"}]}}],"meta":{"lastUpdated":"2019-04-09T12:03:19.702236+00:00","profile":["https://bluebutton.cms.gov/assets/ig/StructureDefinition-bluebutton-inpatient-claim"],"versionId":"MTU1NDgxMTM5OTcwMjIzNjAwMA"},"organization":{"identifier":{"value":"4d5efb94-acd6-42fa-afdc-e1d894a0a2f7"}},"patient":{"reference":"Patient/0b1c606e-6cbd-4103-b535-6c3d7e9940b4"},"payment":{"amount":{"code":"USD","system":"urn:iso:std:iso:4217","value":11851.472000000002}},"provider":{"identifier":{"value":"b42f2bac-f12b-418d-abb7-03cbcba2919f"}},"resourceType":"ExplanationOfBenefit","status":"active","totalCost":{"code":"USD","system":"urn:iso:std:iso:4217","value":14939.34},"type":{"coding":[{"code":"71","display":"Local carrier non-durable medical equipment, prosthetics, orthotics, and supplies (DMEPOS) claim","system":"https://bluebutton.cms.gov/resources/variables/nch_clm_type_cd"},{"code":"CARRIER","display":"EOB Type","system":"https://bluebutton.cms.gov/resources/codesystem/eob-type"},{"code":"professional","display":"Claim Type","system":"http://hl7.org/fhir/ex-claimtype"},{"code":"O","display":"Part B physician/supplier claim record (processed by local carriers; can include DMEPOS services)","system":"https://bluebutton.cms.gov/resources/variables/nch_near_line_rec_ident_cd"}]}}},{"resource":{"billablePeriod":{"end":"2016-08-07T08:31:08-04:00","start":"2015-08-07T08:31:08-04:00"},"careTeam":[{"provider":{"identifier":{"system":"http://hl7.org/fhir/sid/us-npi","value":"99999999"}},"role":{"coding":[{"code":"primary","display":"Primary Care Practitioner","system":"http://hl7.org/fhir/claimcareteamrole"}]},"sequence":1}],"claim":{"reference":"Claim/0167a146-cd78-4599-9b7f-cc2d36f4c162"},"contained":[{"id":"1","intent":"order","recipient":[{"identifier":{"system":"http://hl7.org/fhir/sid/us-npi","value":"99999999"}}],"requester":{"agent":{"identifier":{"system":"http://hl7.org/fhir/sid/us-npi","value":"99999999"}}},"resourceType":"ReferralRequest","status":"completed","subject":{"reference":"Patient/0b1c606e-6cbd-4103-b535-6c3d7e9940b4"}},{"id":"coverage","resourceType":"Coverage","type":{"text":"private"}}],"created":"2015-08-07T08:31:08-04:00","id":"f2ab7b0e-663d-4511-8e63-7ceaaf04e229","identifier":[{"system":"https://bluebutton.cms.gov/resources/variables/clm_id","value":"0167a146-cd78-4599-9b7f-cc2d36f4c162"},{"system":"https://bluebutton.cms.gov/resources/identifier/claim-group","value":"99999999999"}],"insurance":{"coverage":{"reference":"#coverage"}},"item":[{"category":{"coding":[{"code":"1","display":"Medical care","system":"https://bluebutton.cms.gov/resources/variables/line_cms_type_srvc_cd"}]},"encounter":[{"reference":"Encounter/8700ceee-f45c-42e3-bf97-99a747b92091"}],"locationCodeableConcept":{"coding":[{"code":"21","display":"Inpatient Hospital","system":"https://bluebutton.cms.gov/resources/variables/line_place_of_srvc_cd"}]},"sequence":1,"servicedPeriod":{"end":"2015-08-07T08:31:08-04:00","start":"2015-08-07T08:16:08-04:00"}},{"adjudication":[{"amount":{"code":"USD","system":"urn:iso:std:iso:4217","value":28.104000000000003},"category":{"coding":[{"code":"https://bluebutton.cms.gov/resources/variables/line_coinsrnc_amt","display":"Line Beneficiary Coinsurance Amount","system":"https://bluebutton.cms.gov/resources/codesystem/adjudication"}]}},{"amount":{"code":"USD","system":"urn:iso:std:iso:4217","value":112.41600000000001},"category":{"coding":[{"code":"https://bluebutton.cms.gov/resources/variables/line_prvdr_pmt_amt","display":"Line Provider Payment Amount","system":"https://bluebutton.cms.gov/resources/codesystem/adjudication"}]}},{"amount":{"code":"USD","system":"urn:iso:std:iso:4217","value":140.52},"category":{"coding":[{"code":"https://bluebutton.cms.gov/resources/variables/line_sbmtd_chrg_amt","display":"Line Submitted Charge Amount","system":"https://bluebutton.cms.gov/resources/codesystem/adjudication"}]}},{"amount":{"code":"USD","system":"urn:iso:std:iso:4217","value":140.52},"category":{"coding":[{"code":"https://bluebutton.cms.gov/resources/variables/line_alowd_chrg_amt","display":"Line Allowed Charge Amount","system":"https://bluebutton.cms.gov/resources/codesystem/adjudication"}]}},{"amount":{"code":"USD","system":"urn:iso:std:iso:4217","value":0},"category":{"coding":[{"code":"https://bluebutton.cms.gov/resources/variables/line_bene_ptb_ddctbl_amt","display":"Line Beneficiary Part B Deductible Amount","system":"https://bluebutton.cms.gov/resources/codesystem/adjudication"}]}},{"category":{"coding":[{"code":"https://bluebutton.cms.gov/resources/variables/line_prcsg_ind_cd","display":"Line Processing Indicator Code","system":"https://bluebutton.cms.gov/resources/codesystem/adjudication"}]},"reason":{"coding":[{"code":"A","display":"Allowed","system":"https://bluebutton.cms.gov/resources/variables/line_prcsg_ind_cd"}]}}],"category":{"coding":[{"code":"1","display":"Medical care","system":"https://bluebutton.cms.gov/resources/variables/line_cms_type_srvc_cd"}]},"informationLinkId":[1],"locationCodeableConcept":{"coding":[{"code":"21","display":"Inpatient Hospital","system":"https://bluebutton.cms.gov/resources/variables/line_place_of_srvc_cd"}]},"net":{"code":"USD","system":"urn:iso:std:iso:4217","value":140.52},"sequence":2,"servicedPeriod":{"end":"2015-08-07T08:31:08-04:00","start":"2015-08-07T08:16:08-04:00"}}],"meta":{"lastUpdated":"2019-04-09T12:03:19.728582+00:00","versionId":"MTU1NDgxMTM5OTcyODU4MjAwMA"},"organization":{"identifier":{"value":"4d5efb94-acd6-42fa-afdc-e1d894a0a2f7"}},"patient":{"reference":"Patient/0b1c606e-6cbd-4103-b535-6c3d7e9940b4"},"payment":{"amount":{"code":"USD","system":"urn:iso:std:iso:4217","value":112.41600000000001}},"provider":{"identifier":{"value":"b42f2bac-f12b-418d-abb7-03cbcba2919f"}},"referral":{"reference":"#1"},"resourceType":"ExplanationOfBenefit","status":"active","totalCost":{"code":"USD","system":"urn:iso:std:iso:4217","value":265.52},"type":{"coding":[{"code":"71","display":"Local carrier non-durable medical equipment, prosthetics, orthotics, and supplies (DMEPOS) claim","system":"https://bluebutton.cms.gov/resources/variables/nch_clm_type_cd"},{"code":"CARRIER","display":"EOB Type","system":"https://bluebutton.cms.gov/resources/codesystem/eob-type"},{"code":"professional","display":"Claim Type","system":"http://hl7.org/fhir/ex-claimtype"},{"code":"O","display":"Part B physician/supplier claim record (processed by local carriers; can include DMEPOS services)","system":"https://bluebutton.cms.gov/resources/variables/nch_near_line_rec_ident_cd"}]}}},{"resource":{"date":"2014-08-01T08:16:08-04:00","encounter":{"reference":"Encounter/951bece7-8193-49d6-82c5-77f8958fa9ef"},"id":"07eb9a8b-ae20-4148-858f-2eca1ee6d78f","meta":{"lastUpdated":"2019-04-09T12:03:19.728577+00:00","versionId":"MTU1NDgxMTM5OTcyODU3NzAwMA"},"notGiven":false,"patient":{"reference":"Patient/0b1c606e-6cbd-4103-b535-6c3d7e9940b4"},"primarySource":true,"resourceType":"Immunization","status":"completed","vaccineCode":{"coding":[{"code":"140","display":"Influenza, seasonal, injectable, preservative free","system":"http://hl7.org/fhir/sid/cvx"}],"text":"Influenza, seasonal, injectable, preservative free"}}},{"resource":{"date":"2012-06-29T08:16:08-04:00","encounter":{"reference":"Encounter/e138d597-3d36-4fa4-a164-98504a507c0f"},"id":"09582dbb-22fd-4b8d-9ed4-b627745dd8db","meta":{"lastUpdated":"2019-04-09T12:03:18.687522+00:00","versionId":"MTU1NDgxMTM5ODY4NzUyMjAwMA"},"notGiven":false,"patient":{"reference":"Patient/0b1c606e-6cbd-4103-b535-6c3d7e9940b4"},"primarySource":true,"resourceType":"Immunization","status":"completed","vaccineCode":{"coding":[{"code":"140","display":"Influenza, seasonal, injectable, preservative free","system":"http://hl7.org/fhir/sid/cvx"}],"text":"Influenza, seasonal, injectable, preservative free"}}},{"resource":{"date":"2018-08-10T08:16:08-04:00","encounter":{"reference":"Encounter/2f58463c-ed28-4010-ae27-cc4e7e984f3c"},"id":"192e5c80-d7b3-4b84-a94b-54e72c3afdc3","meta":{"lastUpdated":"2019-04-09T12:03:20.922509+00:00","versionId":"MTU1NDgxMTQwMDkyMjUwOTAwMA"},"notGiven":false,"patient":{"reference":"Patient/0b1c606e-6cbd-4103-b535-6c3d7e9940b4"},"primarySource":true,"resourceType":"Immunization","status":"completed","vaccineCode":{"coding":[{"code":"140","display":"Influenza, seasonal, injectable, preservative free","system":"http://hl7.org/fhir/sid/cvx"}],"text":"Influenza, seasonal, injectable, preservative free"}}},{"resource":{"date":"2009-06-12T08:16:08-04:00","encounter":{"reference":"Encounter/3038d719-51c2-4efa-aa11-4736114aa4b4"},"id":"201185cf-bf6a-4458-a1f0-27a573e099f4","meta":{"lastUpdated":"2019-04-09T12:03:18.649616+00:00","versionId":"MTU1NDgxMTM5ODY0OTYxNjAwMA"},"notGiven":false,"patient":{"reference":"Patient/0b1c606e-6cbd-4103-b535-6c3d7e9940b4"},"primarySource":true,"resourceType":"Immunization","status":"completed","vaccineCode":{"coding":[{"code":"62","display":"HPV, quadrivalent","system":"http://hl7.org/fhir/sid/cvx"}],"text":"HPV, quadrivalent"}}},{"resource":{"date":"2018-08-10T08:16:08-04:00","encounter":{"reference":"Encounter/2f58463c-ed28-4010-ae27-cc4e7e984f3c"},"id":"3303f575-d350-40ef-a4a9-7e14ec0261e7","meta":{"lastUpdated":"2019-04-09T12:03:20.922505+00:00","versionId":"MTU1NDgxMTQwMDkyMjUwNTAwMA"},"notGiven":false,"patient":{"reference":"Patient/0b1c606e-6cbd-4103-b535-6c3d7e9940b4"},"primarySource":true,"resourceType":"Immunization","status":"completed","vaccineCode":{"coding":[{"code":"43","display":"Hep B, adult","system":"http://hl7.org/fhir/sid/cvx"}],"text":"Hep B, adult"}}},{"resource":{"date":"2011-06-24T08:16:08-04:00","encounter":{"reference":"Encounter/91b768f5-fa54-46c5-b11e-e7f8ab43cc00"},"id":"59686e04-1dcd-4b29-bfe3-e3da37bf2b3c","meta":{"lastUpdated":"2019-04-09T12:03:18.674221+00:00","versionId":"MTU1NDgxMTM5ODY3NDIyMTAwMA"},"notGiven":false,"patient":{"reference":"Patient/0b1c606e-6cbd-4103-b535-6c3d7e9940b4"},"primarySource":true,"resourceType":"Immunization","status":"completed","vaccineCode":{"coding":[{"code":"140","display":"Influenza, seasonal, injectable, preservative free","system":"http://hl7.org/fhir/sid/cvx"}],"text":"Influenza, seasonal, injectable, preservative free"}}},{"resource":{"date":"2018-08-10T08:16:08-04:00","encounter":{"reference":"Encounter/2f58463c-ed28-4010-ae27-cc4e7e984f3c"},"id":"5d09627a-bbcf-455a-8cff-85cee65a0b5f","meta":{"lastUpdated":"2019-04-09T12:03:20.913910+00:00","versionId":"MTU1NDgxMTQwMDkxMzkxMDAwMA"},"notGiven":false,"patient":{"reference":"Patient/0b1c606e-6cbd-4103-b535-6c3d7e9940b4"},"primarySource":true,"resourceType":"Immunization","status":"completed","vaccineCode":{"coding":[{"code":"113","display":"Td (adult) preservative free","system":"http://hl7.org/fhir/sid/cvx"}],"text":"Td (adult) preservative free"}}},{"resource":{"date":"2012-06-29T08:16:08-04:00","encounter":{"reference":"Encounter/e138d597-3d36-4fa4-a164-98504a507c0f"},"id":"5e6dfc90-bc50-4e69-b62c-e6eda6c4387e","meta":{"lastUpdated":"2019-04-09T12:03:18.687525+00:00","versionId":"MTU1NDgxMTM5ODY4NzUyNTAwMA"},"notGiven":false,"patient":{"reference":"Patient/0b1c606e-6cbd-4103-b535-6c3d7e9940b4"},"primarySource":true,"resourceType":"Immunization","status":"completed","vaccineCode":{"coding":[{"code":"114","display":"meningococcal MCV4P","system":"http://hl7.org/fhir/sid/cvx"}],"text":"meningococcal MCV4P"}}},{"resource":{"date":"2009-06-12T08:16:08-04:00","encounter":{"reference":"Encounter/3038d719-51c2-4efa-aa11-4736114aa4b4"},"id":"6043af4b-9449-40c6-bea6-d7b16a79dc85","meta":{"lastUpdated":"2019-04-09T12:03:18.665992+00:00","versionId":"MTU1NDgxMTM5ODY2NTk5MjAwMA"},"notGiven":false,"patient":{"reference":"Patient/0b1c606e-6cbd-4103-b535-6c3d7e9940b4"},"primarySource":true,"resourceType":"Immunization","status":"completed","vaccineCode":{"coding":[{"code":"140","display":"Influenza, seasonal, injectable, preservative free","system":"http://hl7.org/fhir/sid/cvx"}],"text":"Influenza, seasonal, injectable, preservative free"}}},{"resource":{"date":"2010-06-18T08:16:08-04:00","encounter":{"reference":"Encounter/6abd836c-5e01-422e-8edb-e345e38395ec"},"id":"86263924-57d7-43e2-a8d8-8e15ecbe032b","meta":{"lastUpdated":"2019-04-09T12:03:18.654579+00:00","versionId":"MTU1NDgxMTM5ODY1NDU3OTAwMA"},"notGiven":false,"patient":{"reference":"Patient/0b1c606e-6cbd-4103-b535-6c3d7e9940b4"},"primarySource":true,"resourceType":"Immunization","status":"completed","vaccineCode":{"coding":[{"code":"140","display":"Influenza, seasonal, injectable, preservative free","system":"http://hl7.org/fhir/sid/cvx"}],"text":"Influenza, seasonal, injectable, preservative free"}}},{"resource":{"date":"2015-08-07T08:16:08-04:00","encounter":{"reference":"Encounter/8700ceee-f45c-42e3-bf97-99a747b92091"},"id":"c006d8a5-1b3b-44b6-b3fe-9d84d6a8f16c","meta":{"lastUpdated":"2019-04-09T12:03:19.743417+00:00","versionId":"MTU1NDgxMTM5OTc0MzQxNzAwMA"},"notGiven":false,"patient":{"reference":"Patient/0b1c606e-6cbd-4103-b535-6c3d7e9940b4"},"primarySource":true,"resourceType":"Immunization","status":"completed","vaccineCode":{"coding":[{"code":"140","display":"Influenza, seasonal, injectable, preservative free","system":"http://hl7.org/fhir/sid/cvx"}],"text":"Influenza, seasonal, injectable, preservative free"}}},{"resource":{"date":"2018-08-10T08:16:08-04:00","encounter":{"reference":"Encounter/2f58463c-ed28-4010-ae27-cc4e7e984f3c"},"id":"c0e0641c-33de-4350-b8ba-cc7a57626440","meta":{"lastUpdated":"2019-04-09T12:03:20.922513+00:00","versionId":"MTU1NDgxMTQwMDkyMjUxMzAwMA"},"notGiven":false,"patient":{"reference":"Patient/0b1c606e-6cbd-4103-b535-6c3d7e9940b4"},"primarySource":true,"resourceType":"Immunization","status":"completed","vaccineCode":{"coding":[{"code":"114","display":"meningococcal MCV4P","system":"http://hl7.org/fhir/sid/cvx"}],"text":"meningococcal MCV4P"}}},{"resource":{"date":"2012-12-14T07:16:08-05:00","encounter":{"reference":"Encounter/ddb4a6a5-3549-4c2f-b7a4-45ebbee6c7d5"},"id":"d9e3adc2-48f3-4af3-91f6-0d0b20b34890","meta":{"lastUpdated":"2019-04-09T12:03:19.717798+00:00","versionId":"MTU1NDgxMTM5OTcxNzc5ODAwMA"},"notGiven":false,"patient":{"reference":"Patient/0b1c606e-6cbd-4103-b535-6c3d7e9940b4"},"primarySource":true,"resourceType":"Immunization","status":"completed","vaccineCode":{"coding":[{"code":"140","display":"Influenza, seasonal, injectable, preservative free","system":"http://hl7.org/fhir/sid/cvx"}],"text":"Influenza, seasonal, injectable, preservative free"}}},{"resource":{"authoredOn":"2010-07-17T08:16:08-04:00","context":{"reference":"Encounter/a10d49ff-0eb1-4527-a380-50bd50effed4"},"dosageInstruction":[{"asNeededBoolean":true,"sequence":1}],"id":"26914715-c5b1-4161-b3d6-44f678501431","intent":"order","medicationCodeableConcept":{"coding":[{"code":"310965","display":"Ibuprofen 200 MG Oral Tablet","system":"http://www.nlm.nih.gov/research/umls/rxnorm"}],"text":"Ibuprofen 200 MG Oral Tablet"},"meta":{"lastUpdated":"2019-04-09T12:03:18.676216+00:00","versionId":"MTU1NDgxMTM5ODY3NjIxNjAwMA"},"requester":{"agent":{"reference":"Practitioner/b42f2bac-f12b-418d-abb7-03cbcba2919f"},"onBehalfOf":{"reference":"Organization/4d5efb94-acd6-42fa-afdc-e1d894a0a2f7"}},"resourceType":"MedicationRequest","status":"stopped","subject":{"reference":"Patient/0b1c606e-6cbd-4103-b535-6c3d7e9940b4"}}},{"resource":{"authoredOn":"2010-07-17T08:16:08-04:00","context":{"reference":"Encounter/a10d49ff-0eb1-4527-a380-50bd50effed4"},"dosageInstruction":[{"additionalInstruction":[{"coding":[{"code":"418577003","display":"Take at regular intervals. Complete the prescribed course unless otherwise directed.","system":"http://snomed.info/sct"}],"text":"Take at regular intervals. Complete the prescribed course unless otherwise directed."}],"asNeededBoolean":false,"doseQuantity":{"value":1},"sequence":1,"timing":{"repeat":{"frequency":2,"period":1,"periodUnit":"d"}}}],"id":"733c311c-feab-4b4e-a122-ec8c8a4349ba","intent":"order","medicationCodeableConcept":{"coding":[{"code":"309097","display":"Cefuroxime 250 MG Oral Tablet","system":"http://www.nlm.nih.gov/research/umls/rxnorm"}],"text":"Cefuroxime 250 MG Oral Tablet"},"meta":{"lastUpdated":"2019-04-09T12:03:18.654226+00:00","versionId":"MTU1NDgxMTM5ODY1NDIyNjAwMA"},"requester":{"agent":{"reference":"Practitioner/b42f2bac-f12b-418d-abb7-03cbcba2919f"},"onBehalfOf":{"reference":"Organization/4d5efb94-acd6-42fa-afdc-e1d894a0a2f7"}},"resourceType":"MedicationRequest","status":"stopped","subject":{"reference":"Patient/0b1c606e-6cbd-4103-b535-6c3d7e9940b4"}}},{"resource":{"authoredOn":"2012-12-03T07:16:08-05:00","context":{"reference":"Encounter/de6b1af2-e7e0-4c94-a82f-ec1fb44362e5"},"id":"cbf99e7a-e35b-4f4a-8c6c-98b13177346d","intent":"order","medicationCodeableConcept":{"coding":[{"code":"313782","display":"Acetaminophen 325 MG Oral Tablet","system":"http://www.nlm.nih.gov/research/umls/rxnorm"}],"text":"Acetaminophen 325 MG Oral Tablet"},"meta":{"lastUpdated":"2019-04-09T12:03:19.712231+00:00","versionId":"MTU1NDgxMTM5OTcxMjIzMTAwMA"},"reasonReference":[{"reference":"Condition/517ba389-cce9-4813-8743-49523f0f6620"}],"requester":{"agent":{"reference":"Practitioner/b42f2bac-f12b-418d-abb7-03cbcba2919f"},"onBehalfOf":{"reference":"Organization/4d5efb94-acd6-42fa-afdc-e1d894a0a2f7"}},"resourceType":"MedicationRequest","status":"stopped","subject":{"reference":"Patient/0b1c606e-6cbd-4103-b535-6c3d7e9940b4"}}},{"resource":{"category":[{"coding":[{"code":"vital-signs","display":"vital-signs","system":"http://hl7.org/fhir/observation-category"}]}],"code":{"coding":[{"code":"39156-5","display":"Body Mass Index","system":"http://loinc.org"}],"text":"Body Mass Index"},"context":{"reference":"Encounter/0777984e-b0b6-44cc-8754-2b31d71fbcc4"},"effectiveDateTime":"2013-07-26T08:16:08-04:00","id":"0666d47a-f339-4d1a-be2e-9705e669ab42","issued":"2013-07-26T08:16:08.720-04:00","meta":{"lastUpdated":"2019-04-09T12:03:19.707053+00:00","versionId":"MTU1NDgxMTM5OTcwNzA1MzAwMA"},"resourceType":"Observation","status":"final","subject":{"reference":"Patient/0b1c606e-6cbd-4103-b535-6c3d7e9940b4"},"valueQuantity":{"code":"kg/m2","system":"http://unitsofmeasure.org","unit":"kg/m2","value":19.243412942217123}}},{"resource":{"category":[{"coding":[{"code":"laboratory","display":"laboratory","system":"http://hl7.org/fhir/observation-category"}]}],"code":{"coding":[{"code":"6690-2","display":"Leukocytes [#/volume] in Blood by Automated count","system":"http://loinc.org"}],"text":"Leukocytes [#/volume] in Blood by Automated count"},"context":{"reference":"Encounter/2f58463c-ed28-4010-ae27-cc4e7e984f3c"},"effectiveDateTime":"2018-08-10T08:16:08-04:00","id":"07ba17ec-d9bf-4f3e-a205-f4dc9e8e74be","issued":"2018-08-10T08:16:08.720-04:00","meta":{"lastUpdated":"2019-04-09T12:03:20.922506+00:00","versionId":"MTU1NDgxMTQwMDkyMjUwNjAwMA"},"resourceType":"Observation","status":"final","subject":{"reference":"Patient/0b1c606e-6cbd-4103-b535-6c3d7e9940b4"},"valueQuantity":{"code":"10*3/uL","system":"http://unitsofmeasure.org","unit":"10*3/uL","value":6.718548656126802}}},{"resource":{"category":[{"coding":[{"code":"laboratory","display":"laboratory","system":"http://hl7.org/fhir/observation-category"}]}],"code":{"coding":[{"code":"787-2","display":"MCV [Entitic volume] by Automated count","system":"http://loinc.org"}],"text":"MCV [Entitic volume] by Automated count"},"context":{"reference":"Encounter/e138d597-3d36-4fa4-a164-98504a507c0f"},"effectiveDateTime":"2012-06-29T08:16:08-04:00","id":"109f225c-a6b7-4fe3-a94f-a15dc5edd6c6","issued":"2012-06-29T08:16:08.720-04:00","meta":{"lastUpdated":"2019-04-09T12:03:18.687200+00:00","versionId":"MTU1NDgxMTM5ODY4NzIwMDAwMA"},"resourceType":"Observation","status":"final","subject":{"reference":"Patient/0b1c606e-6cbd-4103-b535-6c3d7e9940b4"},"valueQuantity":{"code":"fL","system":"http://unitsofmeasure.org","unit":"fL","value":94.4110874747617}}},{"resource":{"category":[{"coding":[{"code":"vital-signs","display":"vital-signs","system":"http://hl7.org/fhir/observation-category"}]}],"code":{"coding":[{"code":"39156-5","display":"Body Mass Index","system":"http://loinc.org"}],"text":"Body Mass Index"},"context":{"reference":"Encounter/8700ceee-f45c-42e3-bf97-99a747b92091"},"effectiveDateTime":"2015-08-07T08:16:08-04:00","id":"2a5cbb21-56ad-4ff3-8afc-3af522127fb3","issued":"2015-08-07T08:16:08.720-04:00","meta":{"lastUpdated":"2019-04-09T12:03:19.743418+00:00","versionId":"MTU1NDgxMTM5OTc0MzQxODAwMA"},"resourceType":"Observation","status":"final","subject":{"reference":"Patient/0b1c606e-6cbd-4103-b535-6c3d7e9940b4"},"valueQuantity":{"code":"kg/m2","system":"http://unitsofmeasure.org","unit":"kg/m2","value":20.29596609209322}}},{"resource":{"category":[{"coding":[{"code":"vital-signs","display":"vital-signs","system":"http://hl7.org/fhir/observation-category"}]}],"code":{"coding":[{"code":"29463-7","display":"Body Weight","system":"http://loinc.org"}],"text":"Body Weight"},"context":{"reference":"Encounter/6abd836c-5e01-422e-8edb-e345e38395ec"},"effectiveDateTime":"2010-06-18T08:16:08-04:00","id":"2d2ea234-7967-4461-84c0-111c09e393ba","issued":"2010-06-18T08:16:08.720-04:00","meta":{"lastUpdated":"2019-04-09T12:03:18.680093+00:00","versionId":"MTU1NDgxMTM5ODY4MDA5MzAwMA"},"resourceType":"Observation","status":"final","subject":{"reference":"Patient/0b1c606e-6cbd-4103-b535-6c3d7e9940b4"},"valueQuantity":{"code":"kg","system":"http://unitsofmeasure.org","unit":"kg","value":42.91019410380249}}},{"resource":{"category":[{"coding":[{"code":"laboratory","display":"laboratory","system":"http://hl7.org/fhir/observation-category"}]}],"code":{"coding":[{"code":"789-8","display":"Erythrocytes [#/volume] in Blood by Automated count","system":"http://loinc.org"}],"text":"Erythrocytes [#/volume] in Blood by Automated count"},"context":{"reference":"Encounter/2f58463c-ed28-4010-ae27-cc4e7e984f3c"},"effectiveDateTime":"2018-08-10T08:16:08-04:00","id":"30090d91-6838-4775-a298-c1f7ae252082","issued":"2018-08-10T08:16:08.720-04:00","meta":{"lastUpdated":"2019-04-09T12:03:20.909803+00:00","versionId":"MTU1NDgxMTQwMDkwOTgwMzAwMA"},"resourceType":"Observation","status":"final","subject":{"reference":"Patient/0b1c606e-6cbd-4103-b535-6c3d7e9940b4"},"valueQuantity":{"code":"10*6/uL","system":"http://unitsofmeasure.org","unit":"10*6/uL","value":4.724445211020901}}},{"resource":{"category":[{"coding":[{"code":"laboratory","display":"laboratory","system":"http://hl7.org/fhir/observation-category"}]}],"code":{"coding":[{"code":"787-2","display":"MCV [Entitic volume] by Automated count","system":"http://loinc.org"}],"text":"MCV [Entitic volume] by Automated count"},"context":{"reference":"Encounter/2f58463c-ed28-4010-ae27-cc4e7e984f3c"},"effectiveDateTime":"2018-08-10T08:16:08-04:00","id":"31457f71-08d6-40d0-9314-ea26bf4a939e","issued":"2018-08-10T08:16:08.720-04:00","meta":{"lastUpdated":"2019-04-09T12:03:20.922512+00:00","versionId":"MTU1NDgxMTQwMDkyMjUxMjAwMA"},"resourceType":"Observation","status":"final","subject":{"reference":"Patient/0b1c606e-6cbd-4103-b535-6c3d7e9940b4"},"valueQuantity":{"code":"fL","system":"http://unitsofmeasure.org","unit":"fL","value":94.46780225382781}}},{"resource":{"category":[{"coding":[{"code":"vital-signs","display":"vital-signs","system":"http://hl7.org/fhir/observation-category"}]}],"code":{"coding":[{"code":"39156-5","display":"Body Mass Index","system":"http://loinc.org"}],"text":"Body Mass Index"},"context":{"reference":"Encounter/6abd836c-5e01-422e-8edb-e345e38395ec"},"effectiveDateTime":"2010-06-18T08:16:08-04:00","id":"38e6575f-36b7-47b8-875f-3908c9920f2f","issued":"2010-06-18T08:16:08.720-04:00","meta":{"lastUpdated":"2019-04-09T12:03:18.650967+00:00","versionId":"MTU1NDgxMTM5ODY1MDk2NzAwMA"},"resourceType":"Observation","status":"final","subject":{"reference":"Patient/0b1c606e-6cbd-4103-b535-6c3d7e9940b4"},"valueQuantity":{"code":"kg/m2","system":"http://unitsofmeasure.org","unit":"kg/m2","value":17.009613863555334}}},{"resource":{"category":[{"coding":[{"code":"vital-signs","display":"vital-signs","system":"http://hl7.org/fhir/observation-category"}]}],"code":{"coding":[{"code":"29463-7","display":"Body Weight","system":"http://loinc.org"}],"text":"Body Weight"},"context":{"reference":"Encounter/951bece7-8193-49d6-82c5-77f8958fa9ef"},"effectiveDateTime":"2014-08-01T08:16:08-04:00","id":"38f92a18-e4e3-4f27-87ed-25953c94b815","issued":"2014-08-01T08:16:08.720-04:00","meta":{"lastUpdated":"2019-04-09T12:03:19.733107+00:00","versionId":"MTU1NDgxMTM5OTczMzEwNzAwMA"},"resourceType":"Observation","status":"final","subject":{"reference":"Patient/0b1c606e-6cbd-4103-b535-6c3d7e9940b4"},"valueQuantity":{"code":"kg","system":"http://unitsofmeasure.org","unit":"kg","value":58.416103344916266}}},{"resource":{"category":[{"coding":[{"code":"survey","display":"survey","system":"http://hl7.org/fhir/observation-category"}]}],"code":{"coding":[{"code":"72166-2","display":"Tobacco smoking status NHIS","system":"http://loinc.org"}],"text":"Tobacco smoking status NHIS"},"context":{"reference":"Encounter/91b768f5-fa54-46c5-b11e-e7f8ab43cc00"},"effectiveDateTime":"2011-06-24T08:16:08-04:00","id":"3a4db12a-39e8-46d1-b478-80e02e2341e0","issued":"2011-06-24T08:16:08.720-04:00","meta":{"lastUpdated":"2019-04-09T12:03:18.672684+00:00","versionId":"MTU1NDgxMTM5ODY3MjY4NDAwMA"},"resourceType":"Observation","status":"final","subject":{"reference":"Patient/0b1c606e-6cbd-4103-b535-6c3d7e9940b4"},"valueCodeableConcept":{"coding":[{"code":"266919005","display":"Never smoker","system":"http://snomed.info/sct"}],"text":"Never smoker"}}},{"resource":{"category":[{"coding":[{"code":"laboratory","display":"laboratory","system":"http://hl7.org/fhir/observation-category"}]}],"code":{"coding":[{"code":"789-8","display":"Erythrocytes [#/volume] in Blood by Automated count","system":"http://loinc.org"}],"text":"Erythrocytes [#/volume] in Blood by Automated count"},"context":{"reference":"Encounter/e138d597-3d36-4fa4-a164-98504a507c0f"},"effectiveDateTime":"2012-06-29T08:16:08-04:00","id":"3c4a36a2-a36a-4e85-96f3-3c66ba6a98bb","issued":"2012-06-29T08:16:08.720-04:00","meta":{"lastUpdated":"2019-04-09T12:03:18.687517+00:00","versionId":"MTU1NDgxMTM5ODY4NzUxNzAwMA"},"resourceType":"Observation","status":"final","subject":{"reference":"Patient/0b1c606e-6cbd-4103-b535-6c3d7e9940b4"},"valueQuantity":{"code":"10*6/uL","system":"http://unitsofmeasure.org","unit":"10*6/uL","value":5.024731934205539}}},{"resource":{"category":[{"coding":[{"code":"vital-signs","display":"vital-signs","system":"http://hl7.org/fhir/observation-category"}]}],"code":{"coding":[{"code":"29463-7","display":"Body Weight","system":"http://loinc.org"}],"text":"Body Weight"},"context":{"reference":"Encounter/0777984e-b0b6-44cc-8754-2b31d71fbcc4"},"effectiveDateTime":"2013-07-26T08:16:08-04:00","id":"42c2e025-0caf-4787-a746-b5a47c688973","issued":"2013-07-26T08:16:08.720-04:00","meta":{"lastUpdated":"2019-04-09T12:03:19.717808+00:00","versionId":"MTU1NDgxMTM5OTcxNzgwODAwMA"},"resourceType":"Observation","status":"final","subject":{"reference":"Patient/0b1c606e-6cbd-4103-b535-6c3d7e9940b4"},"valueQuantity":{"code":"kg","system":"http://unitsofmeasure.org","unit":"kg","value":56.10549762764178}}},{"resource":{"category":[{"coding":[{"code":"laboratory","display":"laboratory","system":"http://hl7.org/fhir/observation-category"}]}],"code":{"coding":[{"code":"21000-5","display":"Erythrocyte distribution width [Entitic volume] by Automated count","system":"http://loinc.org"}],"text":"Erythrocyte distribution width [Entitic volume] by Automated count"},"context":{"reference":"Encounter/e138d597-3d36-4fa4-a164-98504a507c0f"},"effectiveDateTime":"2012-06-29T08:16:08-04:00","id":"42f7324d-40e2-4d68-9ee9-a962b6d28b15","issued":"2012-06-29T08:16:08.720-04:00","meta":{"lastUpdated":"2019-04-09T12:03:18.687202+00:00","versionId":"MTU1NDgxMTM5ODY4NzIwMjAwMA"},"resourceType":"Observation","status":"final","subject":{"reference":"Patient/0b1c606e-6cbd-4103-b535-6c3d7e9940b4"},"valueQuantity":{"code":"fL","system":"http://unitsofmeasure.org","unit":"fL","value":41.7138971439688}}},{"resource":{"category":[{"coding":[{"code":"laboratory","display":"laboratory","system":"http://hl7.org/fhir/observation-category"}]}],"code":{"coding":[{"code":"6690-2","display":"Leukocytes [#/volume] in Blood by Automated count","system":"http://loinc.org"}],"text":"Leukocytes [#/volume] in Blood by Automated count"},"context":{"reference":"Encounter/e138d597-3d36-4fa4-a164-98504a507c0f"},"effectiveDateTime":"2012-06-29T08:16:08-04:00","id":"47483c80-0af7-437d-beb2-725cbe304b5f","issued":"2012-06-29T08:16:08.720-04:00","meta":{"lastUpdated":"2019-04-09T12:03:18.682657+00:00","versionId":"MTU1NDgxMTM5ODY4MjY1NzAwMA"},"resourceType":"Observation","status":"final","subject":{"reference":"Patient/0b1c606e-6cbd-4103-b535-6c3d7e9940b4"},"valueQuantity":{"code":"10*3/uL","system":"http://unitsofmeasure.org","unit":"10*3/uL","value":3.5093708274779614}}},{"resource":{"category":[{"coding":[{"code":"vital-signs","display":"vital-signs","system":"http://hl7.org/fhir/observation-category"}]}],"code":{"coding":[{"code":"55284-4","display":"Blood Pressure","system":"http://loinc.org"}],"text":"Blood Pressure"},"component":[{"code":{"coding":[{"code":"8462-4","display":"Diastolic Blood Pressure","system":"http://loinc.org"}],"text":"Diastolic Blood Pressure"},"valueQuantity":{"code":"mmHg","system":"http://unitsofmeasure.org","unit":"mmHg","value":79.88560797522346}},{"code":{"coding":[{"code":"8480-6","display":"Systolic Blood Pressure","system":"http://loinc.org"}],"text":"Systolic Blood Pressure"},"valueQuantity":{"code":"mmHg","system":"http://unitsofmeasure.org","unit":"mmHg","value":111.31900007943128}}],"context":{"reference":"Encounter/3038d719-51c2-4efa-aa11-4736114aa4b4"},"effectiveDateTime":"2009-06-12T08:16:08-04:00","id":"4ec5875d-b42d-4d56-b0f7-44b252fff5d2","issued":"2009-06-12T08:16:08.720-04:00","meta":{"lastUpdated":"2019-04-09T12:03:18.649535+00:00","versionId":"MTU1NDgxMTM5ODY0OTUzNTAwMA"},"resourceType":"Observation","status":"final","subject":{"reference":"Patient/0b1c606e-6cbd-4103-b535-6c3d7e9940b4"}}},{"resource":{"category":[{"coding":[{"code":"vital-signs","display":"vital-signs","system":"http://hl7.org/fhir/observation-category"}]}],"code":{"coding":[{"code":"29463-7","display":"Body Weight","system":"http://loinc.org"}],"text":"Body Weight"},"context":{"reference":"Encounter/a8cf0bab-30c2-43ed-8eb0-52313d43a68a"},"effectiveDateTime":"2013-07-05T08:16:08-04:00","id":"4fc3b1a6-6825-4889-b5ec-3455c7f5e2eb","issued":"2013-07-05T08:16:08.720-04:00","meta":{"lastUpdated":"2019-04-09T12:03:19.719777+00:00","versionId":"MTU1NDgxMTM5OTcxOTc3NzAwMA"},"resourceType":"Observation","status":"final","subject":{"reference":"Patient/0b1c606e-6cbd-4103-b535-6c3d7e9940b4"},"valueQuantity":{"code":"kg","system":"http://unitsofmeasure.org","unit":"kg","value":55.86895126065028}}},{"resource":{"category":[{"coding":[{"code":"vital-signs","display":"vital-signs","system":"http://hl7.org/fhir/observation-category"}]}],"code":{"coding":[{"code":"72514-3","display":"Pain severity - 0-10 verbal numeric rating [Score] - Reported","system":"http://loinc.org"}],"text":"Pain severity - 0-10 verbal numeric rating [Score] - Reported"},"context":{"reference":"Encounter/3038d719-51c2-4efa-aa11-4736114aa4b4"},"effectiveDateTime":"2009-06-12T08:16:08-04:00","id":"52434e43-d341-4adf-bbbe-7e43950e2244","issued":"2009-06-12T08:16:08.720-04:00","meta":{"lastUpdated":"2019-04-09T12:03:18.677785+00:00","versionId":"MTU1NDgxMTM5ODY3Nzc4NTAwMA"},"resourceType":"Observation","status":"final","subject":{"reference":"Patient/0b1c606e-6cbd-4103-b535-6c3d7e9940b4"},"valueQuantity":{"code":"{score}","system":"http://unitsofmeasure.org","unit":"{score}","value":1.8611600820537446}}},{"resource":{"category":[{"coding":[{"code":"laboratory","display":"laboratory","system":"http://hl7.org/fhir/observation-category"}]}],"code":{"coding":[{"code":"4544-3","display":"Hematocrit [Volume Fraction] of Blood by Automated count","system":"http://loinc.org"}],"text":"Hematocrit [Volume Fraction] of Blood by Automated count"},"context":{"reference":"Encounter/e138d597-3d36-4fa4-a164-98504a507c0f"},"effectiveDateTime":"2012-06-29T08:16:08-04:00","id":"525ab4a6-42ad-4284-a46c-1e82f65dd5a2","issued":"2012-06-29T08:16:08.720-04:00","meta":{"lastUpdated":"2019-04-09T12:03:18.687523+00:00","versionId":"MTU1NDgxMTM5ODY4NzUyMzAwMA"},"resourceType":"Observation","status":"final","subject":{"reference":"Patient/0b1c606e-6cbd-4103-b535-6c3d7e9940b4"},"valueQuantity":{"code":"%","system":"http://unitsofmeasure.org","unit":"%","value":39.4649938307809}}},{"resource":{"category":[{"coding":[{"code":"vital-signs","display":"vital-signs","system":"http://hl7.org/fhir/observation-category"}]}],"code":{"coding":[{"code":"55284-4","display":"Blood Pressure","system":"http://loinc.org"}],"text":"Blood Pressure"},"component":[{"code":{"coding":[{"code":"8462-4","display":"Diastolic Blood Pressure","system":"http://loinc.org"}],"text":"Diastolic Blood Pressure"},"valueQuantity":{"code":"mmHg","system":"http://unitsofmeasure.org","unit":"mmHg","value":76.59759325075518}},{"code":{"coding":[{"code":"8480-6","display":"Systolic Blood Pressure","system":"http://loinc.org"}],"text":"Systolic Blood Pressure"},"valueQuantity":{"code":"mmHg","system":"http://unitsofmeasure.org","unit":"mmHg","value":123.9632936820261}}],"context":{"reference":"Encounter/6abd836c-5e01-422e-8edb-e345e38395ec"},"effectiveDateTime":"2010-06-18T08:16:08-04:00","id":"5424a2a5-5707-425d-ab15-d4c4bdbfbe03","issued":"2010-06-18T08:16:08.720-04:00","meta":{"lastUpdated":"2019-04-09T12:03:18.654576+00:00","versionId":"MTU1NDgxMTM5ODY1NDU3NjAwMA"},"resourceType":"Observation","status":"final","subject":{"reference":"Patient/0b1c606e-6cbd-4103-b535-6c3d7e9940b4"}}},{"resource":{"category":[{"coding":[{"code":"laboratory","display":"laboratory","system":"http://hl7.org/fhir/observation-category"}]}],"code":{"coding":[{"code":"21000-5","display":"Erythrocyte distribution width [Entitic volume] by Automated count","system":"http://loinc.org"}],"text":"Erythrocyte distribution width [Entitic volume] by Automated count"},"context":{"reference":"Encounter/2f58463c-ed28-4010-ae27-cc4e7e984f3c"},"effectiveDateTime":"2018-08-10T08:16:08-04:00","id":"550e5ba3-0bc6-4ca6-9419-1b8538cfed07","issued":"2018-08-10T08:16:08.720-04:00","meta":{"lastUpdated":"2019-04-09T12:03:20.922510+00:00","versionId":"MTU1NDgxMTQwMDkyMjUxMDAwMA"},"resourceType":"Observation","status":"final","subject":{"reference":"Patient/0b1c606e-6cbd-4103-b535-6c3d7e9940b4"},"valueQuantity":{"code":"fL","system":"http://unitsofmeasure.org","unit":"fL","value":40.52653987092415}}},{"resource":{"category":[{"coding":[{"code":"survey","display":"survey","system":"http://hl7.org/fhir/observation-category"}]}],"code":{"coding":[{"code":"72166-2","display":"Tobacco smoking status NHIS","system":"http://loinc.org"}],"text":"Tobacco smoking status NHIS"},"context":{"reference":"Encounter/8700ceee-f45c-42e3-bf97-99a747b92091"},"effectiveDateTime":"2015-08-07T08:16:08-04:00","id":"56cec93c-1e57-49e1-923f-dec9e82feb79","issued":"2015-08-07T08:16:08.720-04:00","meta":{"lastUpdated":"2019-04-09T12:03:19.728580+00:00","versionId":"MTU1NDgxMTM5OTcyODU4MDAwMA"},"resourceType":"Observation","status":"final","subject":{"reference":"Patient/0b1c606e-6cbd-4103-b535-6c3d7e9940b4"},"valueCodeableConcept":{"coding":[{"code":"266919005","display":"Never smoker","system":"http://snomed.info/sct"}],"text":"Never smoker"}}},{"resource":{"category":[{"coding":[{"code":"vital-signs","display":"vital-signs","system":"http://hl7.org/fhir/observation-category"}]}],"code":{"coding":[{"code":"55284-4","display":"Blood Pressure","system":"http://loinc.org"}],"text":"Blood Pressure"},"component":[{"code":{"coding":[{"code":"8462-4","display":"Diastolic Blood Pressure","system":"http://loinc.org"}],"text":"Diastolic Blood Pressure"},"valueQuantity":{"code":"mmHg","system":"http://unitsofmeasure.org","unit":"mmHg","value":72.23759526550612}},{"code":{"coding":[{"code":"8480-6","display":"Systolic Blood Pressure","system":"http://loinc.org"}],"text":"Systolic Blood Pressure"},"valueQuantity":{"code":"mmHg","system":"http://unitsofmeasure.org","unit":"mmHg","value":137.16709682762024}}],"context":{"reference":"Encounter/0777984e-b0b6-44cc-8754-2b31d71fbcc4"},"effectiveDateTime":"2013-07-26T08:16:08-04:00","id":"5e7fa5db-a5b1-42b1-976a-55d4ea37f155","issued":"2013-07-26T08:16:08.720-04:00","meta":{"lastUpdated":"2019-04-09T12:03:19.707088+00:00","versionId":"MTU1NDgxMTM5OTcwNzA4ODAwMA"},"resourceType":"Observation","status":"final","subject":{"reference":"Patient/0b1c606e-6cbd-4103-b535-6c3d7e9940b4"}}},{"resource":{"category":[{"coding":[{"code":"laboratory","display":"laboratory","system":"http://hl7.org/fhir/observation-category"}]}],"code":{"coding":[{"code":"785-6","display":"MCH [Entitic mass] by Automated count","system":"http://loinc.org"}],"text":"MCH [Entitic mass] by Automated count"},"context":{"reference":"Encounter/e138d597-3d36-4fa4-a164-98504a507c0f"},"effectiveDateTime":"2012-06-29T08:16:08-04:00","id":"62ddcfca-0ae9-4d2e-9349-d796a436bde1","issued":"2012-06-29T08:16:08.720-04:00","meta":{"lastUpdated":"2019-04-09T12:03:18.682482+00:00","versionId":"MTU1NDgxMTM5ODY4MjQ4MjAwMA"},"resourceType":"Observation","status":"final","subject":{"reference":"Patient/0b1c606e-6cbd-4103-b535-6c3d7e9940b4"},"valueQuantity":{"code":"pg","system":"http://unitsofmeasure.org","unit":"pg","value":31.768711924918584}}},{"resource":{"category":[{"coding":[{"code":"laboratory","display":"laboratory","system":"http://hl7.org/fhir/observation-category"}]}],"code":{"coding":[{"code":"32207-3","display":"Platelet distribution width [Entitic volume] in Blood by Automated count","system":"http://loinc.org"}],"text":"Platelet distribution width [Entitic volume] in Blood by Automated count"},"context":{"reference":"Encounter/2f58463c-ed28-4010-ae27-cc4e7e984f3c"},"effectiveDateTime":"2018-08-10T08:16:08-04:00","id":"64bebdd7-b00d-4f34-ac1f-f0753af63c35","issued":"2018-08-10T08:16:08.720-04:00","meta":{"lastUpdated":"2019-04-09T12:03:20.919567+00:00","versionId":"MTU1NDgxMTQwMDkxOTU2NzAwMA"},"resourceType":"Observation","status":"final","subject":{"reference":"Patient/0b1c606e-6cbd-4103-b535-6c3d7e9940b4"},"valueQuantity":{"code":"fL","system":"http://unitsofmeasure.org","unit":"fL","value":317.5816540198706}}},{"resource":{"category":[{"coding":[{"code":"laboratory","display":"laboratory","system":"http://hl7.org/fhir/observation-category"}]}],"code":{"coding":[{"code":"4544-3","display":"Hematocrit [Volume Fraction] of Blood by Automated count","system":"http://loinc.org"}],"text":"Hematocrit [Volume Fraction] of Blood by Automated count"},"context":{"reference":"Encounter/2f58463c-ed28-4010-ae27-cc4e7e984f3c"},"effectiveDateTime":"2018-08-10T08:16:08-04:00","id":"655ec848-c7eb-497d-9ae7-1599a4f24576","issued":"2018-08-10T08:16:08.720-04:00","meta":{"lastUpdated":"2019-04-09T12:03:20.922507+00:00","versionId":"MTU1NDgxMTQwMDkyMjUwNzAwMA"},"resourceType":"Observation","status":"final","subject":{"reference":"Patient/0b1c606e-6cbd-4103-b535-6c3d7e9940b4"},"valueQuantity":{"code":"%","system":"http://unitsofmeasure.org","unit":"%","value":48.235048963309666}}},{"resource":{"category":[{"coding":[{"code":"survey","display":"survey","system":"http://hl7.org/fhir/observation-category"}]}],"code":{"coding":[{"code":"72166-2","display":"Tobacco smoking status NHIS","system":"http://loinc.org"}],"text":"Tobacco smoking status NHIS"},"context":{"reference":"Encounter/2f58463c-ed28-4010-ae27-cc4e7e984f3c"},"effectiveDateTime":"2018-08-10T08:16:08-04:00","id":"65f7da0c-2ebf-45a3-860c-530fc7344eb0","issued":"2018-08-10T08:16:08.720-04:00","meta":{"lastUpdated":"2019-04-09T12:03:20.919569+00:00","versionId":"MTU1NDgxMTQwMDkxOTU2OTAwMA"},"resourceType":"Observation","status":"final","subject":{"reference":"Patient/0b1c606e-6cbd-4103-b535-6c3d7e9940b4"},"valueCodeableConcept":{"coding":[{"code":"266919005","display":"Never smoker","system":"http://snomed.info/sct"}],"text":"Never smoker"}}},{"resource":{"category":[{"coding":[{"code":"vital-signs","display":"vital-signs","system":"http://hl7.org/fhir/observation-category"}]}],"code":{"coding":[{"code":"8302-2","display":"Body Height","system":"http://loinc.org"}],"text":"Body Height"},"context":{"reference":"Encounter/8700ceee-f45c-42e3-bf97-99a747b92091"},"effectiveDateTime":"2015-08-07T08:16:08-04:00","id":"6bda5267-410b-4baa-adce-4e1f0f4e512f","issued":"2015-08-07T08:16:08.720-04:00","meta":{"lastUpdated":"2019-04-09T12:03:19.737773+00:00","versionId":"MTU1NDgxMTM5OTczNzc3MzAwMA"},"resourceType":"Observation","status":"final","subject":{"reference":"Patient/0b1c606e-6cbd-4103-b535-6c3d7e9940b4"},"valueQuantity":{"code":"cm","system":"http://unitsofmeasure.org","unit":"cm","value":171.98943193121016}}},{"resource":{"category":[{"coding":[{"code":"laboratory","display":"laboratory","system":"http://hl7.org/fhir/observation-category"}]}],"code":{"coding":[{"code":"32207-3","display":"Platelet distribution width [Entitic volume] in Blood by Automated count","system":"http://loinc.org"}],"text":"Platelet distribution width [Entitic volume] in Blood by Automated count"},"context":{"reference":"Encounter/e138d597-3d36-4fa4-a164-98504a507c0f"},"effectiveDateTime":"2012-06-29T08:16:08-04:00","id":"6d82790c-4053-4dd7-98d4-4af108e84d43","issued":"2012-06-29T08:16:08.720-04:00","meta":{"lastUpdated":"2019-04-09T12:03:18.693106+00:00","versionId":"MTU1NDgxMTM5ODY5MzEwNjAwMA"},"resourceType":"Observation","status":"final","subject":{"reference":"Patient/0b1c606e-6cbd-4103-b535-6c3d7e9940b4"},"valueQuantity":{"code":"fL","system":"http://unitsofmeasure.org","unit":"fL","value":455.73102660765284}}},{"resource":{"category":[{"coding":[{"code":"vital-signs","display":"vital-signs","system":"http://hl7.org/fhir/observation-category"}]}],"code":{"coding":[{"code":"29463-7","display":"Body Weight","system":"http://loinc.org"}],"text":"Body Weight"},"context":{"reference":"Encounter/2f58463c-ed28-4010-ae27-cc4e7e984f3c"},"effectiveDateTime":"2018-08-10T08:16:08-04:00","id":"6ee66fc2-72e7-424d-9ff4-d65d123d8bef","issued":"2018-08-10T08:16:08.720-04:00","meta":{"lastUpdated":"2019-04-09T12:03:20.919570+00:00","versionId":"MTU1NDgxMTQwMDkxOTU3MDAwMA"},"resourceType":"Observation","status":"final","subject":{"reference":"Patient/0b1c606e-6cbd-4103-b535-6c3d7e9940b4"},"valueQuantity":{"code":"kg","system":"http://unitsofmeasure.org","unit":"kg","value":65.89355427722084}}},{"resource":{"category":[{"coding":[{"code":"vital-signs","display":"vital-signs","system":"http://hl7.org/fhir/observation-category"}]}],"code":{"coding":[{"code":"55284-4","display":"Blood Pressure","system":"http://loinc.org"}],"text":"Blood Pressure"},"component":[{"code":{"coding":[{"code":"8462-4","display":"Diastolic Blood Pressure","system":"http://loinc.org"}],"text":"Diastolic Blood Pressure"},"valueQuantity":{"code":"mmHg","system":"http://unitsofmeasure.org","unit":"mmHg","value":73.29005179952333}},{"code":{"coding":[{"code":"8480-6","display":"Systolic Blood Pressure","system":"http://loinc.org"}],"text":"Systolic Blood Pressure"},"valueQuantity":{"code":"mmHg","system":"http://unitsofmeasure.org","unit":"mmHg","value":128.18422997668188}}],"context":{"reference":"Encounter/2f58463c-ed28-4010-ae27-cc4e7e984f3c"},"effectiveDateTime":"2018-08-10T08:16:08-04:00","id":"70f2591a-d6fe-48ab-aa09-0a7f598d9a44","issued":"2018-08-10T08:16:08.720-04:00","meta":{"lastUpdated":"2019-04-09T12:03:20.913494+00:00","versionId":"MTU1NDgxMTQwMDkxMzQ5NDAwMA"},"resourceType":"Observation","status":"final","subject":{"reference":"Patient/0b1c606e-6cbd-4103-b535-6c3d7e9940b4"}}},{"resource":{"category":[{"coding":[{"code":"vital-signs","display":"vital-signs","system":"http://hl7.org/fhir/observation-category"}]}],"code":{"coding":[{"code":"39156-5","display":"Body Mass Index","system":"http://loinc.org"}],"text":"Body Mass Index"},"context":{"reference":"Encounter/91b768f5-fa54-46c5-b11e-e7f8ab43cc00"},"effectiveDateTime":"2011-06-24T08:16:08-04:00","id":"73f92d0a-fbaa-48e4-bdf4-5a3e1f7a6f8d","issued":"2011-06-24T08:16:08.720-04:00","meta":{"lastUpdated":"2019-04-09T12:03:18.676190+00:00","versionId":"MTU1NDgxMTM5ODY3NjE5MDAwMA"},"resourceType":"Observation","status":"final","subject":{"reference":"Patient/0b1c606e-6cbd-4103-b535-6c3d7e9940b4"},"valueQuantity":{"code":"kg/m2","system":"http://unitsofmeasure.org","unit":"kg/m2","value":17.599699122271268}}},{"resource":{"category":[{"coding":[{"code":"vital-signs","display":"vital-signs","system":"http://hl7.org/fhir/observation-category"}]}],"code":{"coding":[{"code":"29463-7","display":"Body Weight","system":"http://loinc.org"}],"text":"Body Weight"},"context":{"reference":"Encounter/e138d597-3d36-4fa4-a164-98504a507c0f"},"effectiveDateTime":"2012-06-29T08:16:08-04:00","id":"740f3704-4790-46d8-ac52-3903564faf69","issued":"2012-06-29T08:16:08.720-04:00","meta":{"lastUpdated":"2019-04-09T12:03:18.682219+00:00","versionId":"MTU1NDgxMTM5ODY4MjIxOTAwMA"},"resourceType":"Observation","status":"final","subject":{"reference":"Patient/0b1c606e-6cbd-4103-b535-6c3d7e9940b4"},"valueQuantity":{"code":"kg","system":"http://unitsofmeasure.org","unit":"kg","value":52.44888057600711}}},{"resource":{"category":[{"coding":[{"code":"vital-signs","display":"vital-signs","system":"http://hl7.org/fhir/observation-category"}]}],"code":{"coding":[{"code":"39156-5","display":"Body Mass Index","system":"http://loinc.org"}],"text":"Body Mass Index"},"context":{"reference":"Encounter/3038d719-51c2-4efa-aa11-4736114aa4b4"},"effectiveDateTime":"2009-06-12T08:16:08-04:00","id":"7a2498a5-fd39-4cea-9f5c-7067960515bd","issued":"2009-06-12T08:16:08.720-04:00","meta":{"lastUpdated":"2019-04-09T12:03:18.654569+00:00","versionId":"MTU1NDgxMTM5ODY1NDU2OTAwMA"},"resourceType":"Observation","status":"final","subject":{"reference":"Patient/0b1c606e-6cbd-4103-b535-6c3d7e9940b4"},"valueQuantity":{"code":"kg/m2","system":"http://unitsofmeasure.org","unit":"kg/m2","value":16.69937401077716}}},{"resource":{"category":[{"coding":[{"code":"vital-signs","display":"vital-signs","system":"http://hl7.org/fhir/observation-category"}]}],"code":{"coding":[{"code":"55284-4","display":"Blood Pressure","system":"http://loinc.org"}],"text":"Blood Pressure"},"component":[{"code":{"coding":[{"code":"8462-4","display":"Diastolic Blood Pressure","system":"http://loinc.org"}],"text":"Diastolic Blood Pressure"},"valueQuantity":{"code":"mmHg","system":"http://unitsofmeasure.org","unit":"mmHg","value":88.27208534447053}},{"code":{"coding":[{"code":"8480-6","display":"Systolic Blood Pressure","system":"http://loinc.org"}],"text":"Systolic Blood Pressure"},"valueQuantity":{"code":"mmHg","system":"http://unitsofmeasure.org","unit":"mmHg","value":109.89483871315437}}],"context":{"reference":"Encounter/e138d597-3d36-4fa4-a164-98504a507c0f"},"effectiveDateTime":"2012-06-29T08:16:08-04:00","id":"7e1fa873-2ec7-4b80-b3ea-78472442ca02","issued":"2012-06-29T08:16:08.720-04:00","meta":{"lastUpdated":"2019-04-09T12:03:18.682591+00:00","versionId":"MTU1NDgxMTM5ODY4MjU5MTAwMA"},"resourceType":"Observation","status":"final","subject":{"reference":"Patient/0b1c606e-6cbd-4103-b535-6c3d7e9940b4"}}},{"resource":{"category":[{"coding":[{"code":"survey","display":"survey","system":"http://hl7.org/fhir/observation-category"}]}],"code":{"coding":[{"code":"72166-2","display":"Tobacco smoking status NHIS","system":"http://loinc.org"}],"text":"Tobacco smoking status NHIS"},"context":{"reference":"Encounter/a8cf0bab-30c2-43ed-8eb0-52313d43a68a"},"effectiveDateTime":"2013-07-05T08:16:08-04:00","id":"7f3cc291-7880-41f2-bafa-bc2bc980529b","issued":"2013-07-05T08:16:08.720-04:00","meta":{"lastUpdated":"2019-04-09T12:03:19.707096+00:00","versionId":"MTU1NDgxMTM5OTcwNzA5NjAwMA"},"resourceType":"Observation","status":"final","subject":{"reference":"Patient/0b1c606e-6cbd-4103-b535-6c3d7e9940b4"},"valueCodeableConcept":{"coding":[{"code":"266919005","display":"Never smoker","system":"http://snomed.info/sct"}],"text":"Never smoker"}}},{"resource":{"category":[{"coding":[{"code":"laboratory","display":"laboratory","system":"http://hl7.org/fhir/observation-category"}]}],"code":{"coding":[{"code":"718-7","display":"Hemoglobin [Mass/volume] in Blood","system":"http://loinc.org"}],"text":"Hemoglobin [Mass/volume] in Blood"},"context":{"reference":"Encounter/e138d597-3d36-4fa4-a164-98504a507c0f"},"effectiveDateTime":"2012-06-29T08:16:08-04:00","id":"84209bbe-cab7-4c28-9cf4-3eaa8cfa1f29","issued":"2012-06-29T08:16:08.720-04:00","meta":{"lastUpdated":"2019-04-09T12:03:18.687521+00:00","versionId":"MTU1NDgxMTM5ODY4NzUyMTAwMA"},"resourceType":"Observation","status":"final","subject":{"reference":"Patient/0b1c606e-6cbd-4103-b535-6c3d7e9940b4"},"valueQuantity":{"code":"g/dL","system":"http://unitsofmeasure.org","unit":"g/dL","value":17.179129506173034}}},{"resource":{"category":[{"coding":[{"code":"vital-signs","display":"vital-signs","system":"http://hl7.org/fhir/observation-category"}]}],"code":{"coding":[{"code":"72514-3","display":"Pain severity - 0-10 verbal numeric rating [Score] - Reported","system":"http://loinc.org"}],"text":"Pain severity - 0-10 verbal numeric rating [Score] - Reported"},"context":{"reference":"Encounter/91b768f5-fa54-46c5-b11e-e7f8ab43cc00"},"effectiveDateTime":"2011-06-24T08:16:08-04:00","id":"872a5f6b-7642-4082-a4ca-fd6abdcc521a","issued":"2011-06-24T08:16:08.720-04:00","meta":{"lastUpdated":"2019-04-09T12:03:18.676189+00:00","versionId":"MTU1NDgxMTM5ODY3NjE4OTAwMA"},"resourceType":"Observation","status":"final","subject":{"reference":"Patient/0b1c606e-6cbd-4103-b535-6c3d7e9940b4"},"valueQuantity":{"code":"{score}","system":"http://unitsofmeasure.org","unit":"{score}","value":3.2992401730860257}}},{"resource":{"category":[{"coding":[{"code":"vital-signs","display":"vital-signs","system":"http://hl7.org/fhir/observation-category"}]}],"code":{"coding":[{"code":"29463-7","display":"Body Weight","system":"http://loinc.org"}],"text":"Body Weight"},"context":{"reference":"Encounter/8700ceee-f45c-42e3-bf97-99a747b92091"},"effectiveDateTime":"2015-08-07T08:16:08-04:00","id":"8e404ac9-885b-4f03-b6ed-8797f55cc348","issued":"2015-08-07T08:16:08.720-04:00","meta":{"lastUpdated":"2019-04-09T12:03:19.728579+00:00","versionId":"MTU1NDgxMTM5OTcyODU3OTAwMA"},"resourceType":"Observation","status":"final","subject":{"reference":"Patient/0b1c606e-6cbd-4103-b535-6c3d7e9940b4"},"valueQuantity":{"code":"kg","system":"http://unitsofmeasure.org","unit":"kg","value":60.036207886218094}}},{"resource":{"category":[{"coding":[{"code":"vital-signs","display":"vital-signs","system":"http://hl7.org/fhir/observation-category"}]}],"code":{"coding":[{"code":"72514-3","display":"Pain severity - 0-10 verbal numeric rating [Score] - Reported","system":"http://loinc.org"}],"text":"Pain severity - 0-10 verbal numeric rating [Score] - Reported"},"context":{"reference":"Encounter/6abd836c-5e01-422e-8edb-e345e38395ec"},"effectiveDateTime":"2010-06-18T08:16:08-04:00","id":"922ac5d4-c315-4bf3-9c7a-b963d4491dd1","issued":"2010-06-18T08:16:08.720-04:00","meta":{"lastUpdated":"2019-04-09T12:03:18.658214+00:00","versionId":"MTU1NDgxMTM5ODY1ODIxNDAwMA"},"resourceType":"Observation","status":"final","subject":{"reference":"Patient/0b1c606e-6cbd-4103-b535-6c3d7e9940b4"},"valueQuantity":{"code":"{score}","system":"http://unitsofmeasure.org","unit":"{score}","value":2.232615763745898}}},{"resource":{"category":[{"coding":[{"code":"vital-signs","display":"vital-signs","system":"http://hl7.org/fhir/observation-category"}]}],"code":{"coding":[{"code":"39156-5","display":"Body Mass Index","system":"http://loinc.org"}],"text":"Body Mass Index"},"context":{"reference":"Encounter/e138d597-3d36-4fa4-a164-98504a507c0f"},"effectiveDateTime":"2012-06-29T08:16:08-04:00","id":"9540ab2c-aab8-4b29-a235-ff9856d75518","issued":"2012-06-29T08:16:08.720-04:00","meta":{"lastUpdated":"2019-04-09T12:03:18.687201+00:00","versionId":"MTU1NDgxMTM5ODY4NzIwMTAwMA"},"resourceType":"Observation","status":"final","subject":{"reference":"Patient/0b1c606e-6cbd-4103-b535-6c3d7e9940b4"},"valueQuantity":{"code":"kg/m2","system":"http://unitsofmeasure.org","unit":"kg/m2","value":18.395608145799887}}},{"resource":{"category":[{"coding":[{"code":"vital-signs","display":"vital-signs","system":"http://hl7.org/fhir/observation-category"}]}],"code":{"coding":[{"code":"29463-7","display":"Body Weight","system":"http://loinc.org"}],"text":"Body Weight"},"context":{"reference":"Encounter/3038d719-51c2-4efa-aa11-4736114aa4b4"},"effectiveDateTime":"2009-06-12T08:16:08-04:00","id":"95809dbf-2297-424e-a4c0-788a15e44c49","issued":"2009-06-12T08:16:08.720-04:00","meta":{"lastUpdated":"2019-04-09T12:03:18.655280+00:00","versionId":"MTU1NDgxMTM5ODY1NTI4MDAwMA"},"resourceType":"Observation","status":"final","subject":{"reference":"Patient/0b1c606e-6cbd-4103-b535-6c3d7e9940b4"},"valueQuantity":{"code":"kg","system":"http://unitsofmeasure.org","unit":"kg","value":38.21617097045101}}},{"resource":{"category":[{"coding":[{"code":"vital-signs","display":"vital-signs","system":"http://hl7.org/fhir/observation-category"}]}],"code":{"coding":[{"code":"72514-3","display":"Pain severity - 0-10 verbal numeric rating [Score] - Reported","system":"http://loinc.org"}],"text":"Pain severity - 0-10 verbal numeric rating [Score] - Reported"},"context":{"reference":"Encounter/e138d597-3d36-4fa4-a164-98504a507c0f"},"effectiveDateTime":"2012-06-29T08:16:08-04:00","id":"966ca38c-d1a3-49c5-82cf-76208ff92cd0","issued":"2012-06-29T08:16:08.720-04:00","meta":{"lastUpdated":"2019-04-09T12:03:18.687518+00:00","versionId":"MTU1NDgxMTM5ODY4NzUxODAwMA"},"resourceType":"Observation","status":"final","subject":{"reference":"Patient/0b1c606e-6cbd-4103-b535-6c3d7e9940b4"},"valueQuantity":{"code":"{score}","system":"http://unitsofmeasure.org","unit":"{score}","value":1.3238668701551943}}},{"resource":{"category":[{"coding":[{"code":"vital-signs","display":"vital-signs","system":"http://hl7.org/fhir/observation-category"}]}],"code":{"coding":[{"code":"8302-2","display":"Body Height","system":"http://loinc.org"}],"text":"Body Height"},"context":{"reference":"Encounter/0777984e-b0b6-44cc-8754-2b31d71fbcc4"},"effectiveDateTime":"2013-07-26T08:16:08-04:00","id":"96fea08a-3093-4eaa-abee-aa3a338d1bc6","issued":"2013-07-26T08:16:08.720-04:00","meta":{"lastUpdated":"2019-04-09T12:03:19.707072+00:00","versionId":"MTU1NDgxMTM5OTcwNzA3MjAwMA"},"resourceType":"Observation","status":"final","subject":{"reference":"Patient/0b1c606e-6cbd-4103-b535-6c3d7e9940b4"},"valueQuantity":{"code":"cm","system":"http://unitsofmeasure.org","unit":"cm","value":170.75037243808566}}},{"resource":{"category":[{"coding":[{"code":"vital-signs","display":"vital-signs","system":"http://hl7.org/fhir/observation-category"}]}],"code":{"coding":[{"code":"55284-4","display":"Blood Pressure","system":"http://loinc.org"}],"text":"Blood Pressure"},"component":[{"code":{"coding":[{"code":"8462-4","display":"Diastolic Blood Pressure","system":"http://loinc.org"}],"text":"Diastolic Blood Pressure"},"valueQuantity":{"code":"mmHg","system":"http://unitsofmeasure.org","unit":"mmHg","value":81.62880001541208}},{"code":{"coding":[{"code":"8480-6","display":"Systolic Blood Pressure","system":"http://loinc.org"}],"text":"Systolic Blood Pressure"},"valueQuantity":{"code":"mmHg","system":"http://unitsofmeasure.org","unit":"mmHg","value":105.94020442862013}}],"context":{"reference":"Encounter/a8cf0bab-30c2-43ed-8eb0-52313d43a68a"},"effectiveDateTime":"2013-07-05T08:16:08-04:00","id":"9e82eaa4-d210-4949-b45a-9fd5ba76d199","issued":"2013-07-05T08:16:08.720-04:00","meta":{"lastUpdated":"2019-04-09T12:03:19.709458+00:00","versionId":"MTU1NDgxMTM5OTcwOTQ1ODAwMA"},"resourceType":"Observation","status":"final","subject":{"reference":"Patient/0b1c606e-6cbd-4103-b535-6c3d7e9940b4"}}},{"resource":{"category":[{"coding":[{"code":"laboratory","display":"laboratory","system":"http://hl7.org/fhir/observation-category"}]}],"code":{"coding":[{"code":"777-3","display":"Platelets [#/volume] in Blood by Automated count","system":"http://loinc.org"}],"text":"Platelets [#/volume] in Blood by Automated count"},"context":{"reference":"Encounter/2f58463c-ed28-4010-ae27-cc4e7e984f3c"},"effectiveDateTime":"2018-08-10T08:16:08-04:00","id":"abd5c9aa-d168-434b-80b7-afa4e5843ddc","issued":"2018-08-10T08:16:08.720-04:00","meta":{"lastUpdated":"2019-04-09T12:03:20.913166+00:00","versionId":"MTU1NDgxMTQwMDkxMzE2NjAwMA"},"resourceType":"Observation","status":"final","subject":{"reference":"Patient/0b1c606e-6cbd-4103-b535-6c3d7e9940b4"},"valueQuantity":{"code":"10*3/uL","system":"http://unitsofmeasure.org","unit":"10*3/uL","value":324.566041310314}}},{"resource":{"category":[{"coding":[{"code":"laboratory","display":"laboratory","system":"http://hl7.org/fhir/observation-category"}]}],"code":{"coding":[{"code":"777-3","display":"Platelets [#/volume] in Blood by Automated count","system":"http://loinc.org"}],"text":"Platelets [#/volume] in Blood by Automated count"},"context":{"reference":"Encounter/e138d597-3d36-4fa4-a164-98504a507c0f"},"effectiveDateTime":"2012-06-29T08:16:08-04:00","id":"abdea361-1f57-4787-8091-582c51e108a4","issued":"2012-06-29T08:16:08.720-04:00","meta":{"lastUpdated":"2019-04-09T12:03:18.687520+00:00","versionId":"MTU1NDgxMTM5ODY4NzUyMDAwMA"},"resourceType":"Observation","status":"final","subject":{"reference":"Patient/0b1c606e-6cbd-4103-b535-6c3d7e9940b4"},"valueQuantity":{"code":"10*3/uL","system":"http://unitsofmeasure.org","unit":"10*3/uL","value":210.77163409685826}}},{"resource":{"category":[{"coding":[{"code":"vital-signs","display":"vital-signs","system":"http://hl7.org/fhir/observation-category"}]}],"code":{"coding":[{"code":"8302-2","display":"Body Height","system":"http://loinc.org"}],"text":"Body Height"},"context":{"reference":"Encounter/e138d597-3d36-4fa4-a164-98504a507c0f"},"effectiveDateTime":"2012-06-29T08:16:08-04:00","id":"b2ca846f-ea7c-4c35-b8e0-74a62e87ae29","issued":"2012-06-29T08:16:08.720-04:00","meta":{"lastUpdated":"2019-04-09T12:03:18.687519+00:00","versionId":"MTU1NDgxMTM5ODY4NzUxOTAwMA"},"resourceType":"Observation","status":"final","subject":{"reference":"Patient/0b1c606e-6cbd-4103-b535-6c3d7e9940b4"},"valueQuantity":{"code":"cm","system":"http://unitsofmeasure.org","unit":"cm","value":168.85387699612292}}},{"resource":{"category":[{"coding":[{"code":"survey","display":"survey","system":"http://hl7.org/fhir/observation-category"}]}],"code":{"coding":[{"code":"72166-2","display":"Tobacco smoking status NHIS","system":"http://loinc.org"}],"text":"Tobacco smoking status NHIS"},"context":{"reference":"Encounter/0777984e-b0b6-44cc-8754-2b31d71fbcc4"},"effectiveDateTime":"2013-07-26T08:16:08-04:00","id":"b6eaae2d-c305-42de-b807-722213d4e850","issued":"2013-07-26T08:16:08.720-04:00","meta":{"lastUpdated":"2019-04-09T12:03:19.717504+00:00","versionId":"MTU1NDgxMTM5OTcxNzUwNDAwMA"},"resourceType":"Observation","status":"final","subject":{"reference":"Patient/0b1c606e-6cbd-4103-b535-6c3d7e9940b4"},"valueCodeableConcept":{"coding":[{"code":"266919005","display":"Never smoker","system":"http://snomed.info/sct"}],"text":"Never smoker"}}},{"resource":{"category":[{"coding":[{"code":"survey","display":"survey","system":"http://hl7.org/fhir/observation-category"}]}],"code":{"coding":[{"code":"72166-2","display":"Tobacco smoking status NHIS","system":"http://loinc.org"}],"text":"Tobacco smoking status NHIS"},"context":{"reference":"Encounter/e138d597-3d36-4fa4-a164-98504a507c0f"},"effectiveDateTime":"2012-06-29T08:16:08-04:00","id":"bbdbcb9f-dd98-460c-8aea-0cfca83c8639","issued":"2012-06-29T08:16:08.720-04:00","meta":{"lastUpdated":"2019-04-09T12:03:18.698499+00:00","versionId":"MTU1NDgxMTM5ODY5ODQ5OTAwMA"},"resourceType":"Observation","status":"final","subject":{"reference":"Patient/0b1c606e-6cbd-4103-b535-6c3d7e9940b4"},"valueCodeableConcept":{"coding":[{"code":"266919005","display":"Never smoker","system":"http://snomed.info/sct"}],"text":"Never smoker"}}},{"resource":{"category":[{"coding":[{"code":"laboratory","display":"laboratory","system":"http://hl7.org/fhir/observation-category"}]}],"code":{"coding":[{"code":"785-6","display":"MCH [Entitic mass] by Automated count","system":"http://loinc.org"}],"text":"MCH [Entitic mass] by Automated count"},"context":{"reference":"Encounter/2f58463c-ed28-4010-ae27-cc4e7e984f3c"},"effectiveDateTime":"2018-08-10T08:16:08-04:00","id":"c00eb5e1-857c-4807-a5ec-e04d8df79235","issued":"2018-08-10T08:16:08.720-04:00","meta":{"lastUpdated":"2019-04-09T12:03:20.909942+00:00","versionId":"MTU1NDgxMTQwMDkwOTk0MjAwMA"},"resourceType":"Observation","status":"final","subject":{"reference":"Patient/0b1c606e-6cbd-4103-b535-6c3d7e9940b4"},"valueQuantity":{"code":"pg","system":"http://unitsofmeasure.org","unit":"pg","value":27.81030700537026}}},{"resource":{"category":[{"coding":[{"code":"vital-signs","display":"vital-signs","system":"http://hl7.org/fhir/observation-category"}]}],"code":{"coding":[{"code":"8302-2","display":"Body Height","system":"http://loinc.org"}],"text":"Body Height"},"context":{"reference":"Encounter/6abd836c-5e01-422e-8edb-e345e38395ec"},"effectiveDateTime":"2010-06-18T08:16:08-04:00","id":"c2a22486-9f10-4504-ac3f-023bfaf0ce90","issued":"2010-06-18T08:16:08.720-04:00","meta":{"lastUpdated":"2019-04-09T12:03:18.651302+00:00","versionId":"MTU1NDgxMTM5ODY1MTMwMjAwMA"},"resourceType":"Observation","status":"final","subject":{"reference":"Patient/0b1c606e-6cbd-4103-b535-6c3d7e9940b4"},"valueQuantity":{"code":"cm","system":"http://unitsofmeasure.org","unit":"cm","value":158.83017417228888}}},{"resource":{"category":[{"coding":[{"code":"survey","display":"survey","system":"http://hl7.org/fhir/observation-category"}]}],"code":{"coding":[{"code":"72166-2","display":"Tobacco smoking status NHIS","system":"http://loinc.org"}],"text":"Tobacco smoking status NHIS"},"context":{"reference":"Encounter/951bece7-8193-49d6-82c5-77f8958fa9ef"},"effectiveDateTime":"2014-08-01T08:16:08-04:00","id":"c2a7d20f-81c6-4085-9c8b-76dd2a449d37","issued":"2014-08-01T08:16:08.720-04:00","meta":{"lastUpdated":"2019-04-09T12:03:19.728583+00:00","versionId":"MTU1NDgxMTM5OTcyODU4MzAwMA"},"resourceType":"Observation","status":"final","subject":{"reference":"Patient/0b1c606e-6cbd-4103-b535-6c3d7e9940b4"},"valueCodeableConcept":{"coding":[{"code":"266919005","display":"Never smoker","system":"http://snomed.info/sct"}],"text":"Never smoker"}}},{"resource":{"category":[{"coding":[{"code":"vital-signs","display":"vital-signs","system":"http://hl7.org/fhir/observation-category"}]}],"code":{"coding":[{"code":"8302-2","display":"Body Height","system":"http://loinc.org"}],"text":"Body Height"},"context":{"reference":"Encounter/2f58463c-ed28-4010-ae27-cc4e7e984f3c"},"effectiveDateTime":"2018-08-10T08:16:08-04:00","id":"c5428f3f-8960-42f5-ac08-45585f993c72","issued":"2018-08-10T08:16:08.720-04:00","meta":{"lastUpdated":"2019-04-09T12:03:20.906618+00:00","versionId":"MTU1NDgxMTQwMDkwNjYxODAwMA"},"resourceType":"Observation","status":"final","subject":{"reference":"Patient/0b1c606e-6cbd-4103-b535-6c3d7e9940b4"},"valueQuantity":{"code":"cm","system":"http://unitsofmeasure.org","unit":"cm","value":172.16253847969352}}},{"resource":{"category":[{"coding":[{"code":"vital-signs","display":"vital-signs","system":"http://hl7.org/fhir/observation-category"}]}],"code":{"coding":[{"code":"72514-3","display":"Pain severity - 0-10 verbal numeric rating [Score] - Reported","system":"http://loinc.org"}],"text":"Pain severity - 0-10 verbal numeric rating [Score] - Reported"},"context":{"reference":"Encounter/2f58463c-ed28-4010-ae27-cc4e7e984f3c"},"effectiveDateTime":"2018-08-10T08:16:08-04:00","id":"c5c7f31f-77d8-4632-bdf6-4cf18fa8f04e","issued":"2018-08-10T08:16:08.720-04:00","meta":{"lastUpdated":"2019-04-09T12:03:20.909866+00:00","versionId":"MTU1NDgxMTQwMDkwOTg2NjAwMA"},"resourceType":"Observation","status":"final","subject":{"reference":"Patient/0b1c606e-6cbd-4103-b535-6c3d7e9940b4"},"valueQuantity":{"code":"{score}","system":"http://unitsofmeasure.org","unit":"{score}","value":3.657094917689515}}},{"resource":{"category":[{"coding":[{"code":"vital-signs","display":"vital-signs","system":"http://hl7.org/fhir/observation-category"}]}],"code":{"coding":[{"code":"55284-4","display":"Blood Pressure","system":"http://loinc.org"}],"text":"Blood Pressure"},"component":[{"code":{"coding":[{"code":"8462-4","display":"Diastolic Blood Pressure","system":"http://loinc.org"}],"text":"Diastolic Blood Pressure"},"valueQuantity":{"code":"mmHg","system":"http://unitsofmeasure.org","unit":"mmHg","value":71.26418492179931}},{"code":{"coding":[{"code":"8480-6","display":"Systolic Blood Pressure","system":"http://loinc.org"}],"text":"Systolic Blood Pressure"},"valueQuantity":{"code":"mmHg","system":"http://unitsofmeasure.org","unit":"mmHg","value":131.06986230437263}}],"context":{"reference":"Encounter/91b768f5-fa54-46c5-b11e-e7f8ab43cc00"},"effectiveDateTime":"2011-06-24T08:16:08-04:00","id":"c6f21869-f786-4827-866b-5c4c98d40f80","issued":"2011-06-24T08:16:08.720-04:00","meta":{"lastUpdated":"2019-04-09T12:03:18.676212+00:00","versionId":"MTU1NDgxMTM5ODY3NjIxMjAwMA"},"resourceType":"Observation","status":"final","subject":{"reference":"Patient/0b1c606e-6cbd-4103-b535-6c3d7e9940b4"}}},{"resource":{"category":[{"coding":[{"code":"laboratory","display":"laboratory","system":"http://hl7.org/fhir/observation-category"}]}],"code":{"coding":[{"code":"32623-1","display":"Platelet mean volume [Entitic volume] in Blood by Automated count","system":"http://loinc.org"}],"text":"Platelet mean volume [Entitic volume] in Blood by Automated count"},"context":{"reference":"Encounter/2f58463c-ed28-4010-ae27-cc4e7e984f3c"},"effectiveDateTime":"2018-08-10T08:16:08-04:00","id":"c70cb0aa-74e1-4c58-a6d0-4672b9407400","issued":"2018-08-10T08:16:08.720-04:00","meta":{"lastUpdated":"2019-04-09T12:03:20.919575+00:00","versionId":"MTU1NDgxMTQwMDkxOTU3NTAwMA"},"resourceType":"Observation","status":"final","subject":{"reference":"Patient/0b1c606e-6cbd-4103-b535-6c3d7e9940b4"},"valueQuantity":{"code":"fL","system":"http://unitsofmeasure.org","unit":"fL","value":12.00856653128157}}},{"resource":{"category":[{"coding":[{"code":"vital-signs","display":"vital-signs","system":"http://hl7.org/fhir/observation-category"}]}],"code":{"coding":[{"code":"8331-1","display":"Oral temperature","system":"http://loinc.org"}],"text":"Oral temperature"},"context":{"reference":"Encounter/3f9565d3-43ca-42f5-9da1-1c62e2390faf"},"effectiveDateTime":"2013-07-19T08:16:08-04:00","id":"ca7919a4-cd87-4009-8c32-8aca69f99559","issued":"2013-07-19T08:16:08.720-04:00","meta":{"lastUpdated":"2019-04-09T12:03:19.714517+00:00","versionId":"MTU1NDgxMTM5OTcxNDUxNzAwMA"},"resourceType":"Observation","status":"final","subject":{"reference":"Patient/0b1c606e-6cbd-4103-b535-6c3d7e9940b4"},"valueQuantity":{"code":"Cel","system":"http://unitsofmeasure.org","unit":"Cel","value":37.96906846890319}}},{"resource":{"category":[{"coding":[{"code":"survey","display":"survey","system":"http://hl7.org/fhir/observation-category"}]}],"code":{"coding":[{"code":"72166-2","display":"Tobacco smoking status NHIS","system":"http://loinc.org"}],"text":"Tobacco smoking status NHIS"},"context":{"reference":"Encounter/6abd836c-5e01-422e-8edb-e345e38395ec"},"effectiveDateTime":"2010-06-18T08:16:08-04:00","id":"ccc0026c-a8e6-41cd-9079-4027e98b75d0","issued":"2010-06-18T08:16:08.720-04:00","meta":{"lastUpdated":"2019-04-09T12:03:18.654577+00:00","versionId":"MTU1NDgxMTM5ODY1NDU3NzAwMA"},"resourceType":"Observation","status":"final","subject":{"reference":"Patient/0b1c606e-6cbd-4103-b535-6c3d7e9940b4"},"valueCodeableConcept":{"coding":[{"code":"266919005","display":"Never smoker","system":"http://snomed.info/sct"}],"text":"Never smoker"}}},{"resource":{"category":[{"coding":[{"code":"vital-signs","display":"vital-signs","system":"http://hl7.org/fhir/observation-category"}]}],"code":{"coding":[{"code":"8302-2","display":"Body Height","system":"http://loinc.org"}],"text":"Body Height"},"context":{"reference":"Encounter/91b768f5-fa54-46c5-b11e-e7f8ab43cc00"},"effectiveDateTime":"2011-06-24T08:16:08-04:00","id":"ced662da-2cfb-48df-903a-cdd77d1b08ee","issued":"2011-06-24T08:16:08.720-04:00","meta":{"lastUpdated":"2019-04-09T12:03:18.674220+00:00","versionId":"MTU1NDgxMTM5ODY3NDIyMDAwMA"},"resourceType":"Observation","status":"final","subject":{"reference":"Patient/0b1c606e-6cbd-4103-b535-6c3d7e9940b4"},"valueQuantity":{"code":"cm","system":"http://unitsofmeasure.org","unit":"cm","value":165.3360672557539}}},{"resource":{"category":[{"coding":[{"code":"vital-signs","display":"vital-signs","system":"http://hl7.org/fhir/observation-category"}]}],"code":{"coding":[{"code":"29463-7","display":"Body Weight","system":"http://loinc.org"}],"text":"Body Weight"},"context":{"reference":"Encounter/91b768f5-fa54-46c5-b11e-e7f8ab43cc00"},"effectiveDateTime":"2011-06-24T08:16:08-04:00","id":"cfa4f4ba-b152-4dec-87a6-c4fea65c4fd9","issued":"2011-06-24T08:16:08.720-04:00","meta":{"lastUpdated":"2019-04-09T12:03:18.674225+00:00","versionId":"MTU1NDgxMTM5ODY3NDIyNTAwMA"},"resourceType":"Observation","status":"final","subject":{"reference":"Patient/0b1c606e-6cbd-4103-b535-6c3d7e9940b4"},"valueQuantity":{"code":"kg","system":"http://unitsofmeasure.org","unit":"kg","value":48.110564158839885}}},{"resource":{"category":[{"coding":[{"code":"laboratory","display":"laboratory","system":"http://hl7.org/fhir/observation-category"}]}],"code":{"coding":[{"code":"786-4","display":"MCHC [Mass/volume] by Automated count","system":"http://loinc.org"}],"text":"MCHC [Mass/volume] by Automated count"},"context":{"reference":"Encounter/2f58463c-ed28-4010-ae27-cc4e7e984f3c"},"effectiveDateTime":"2018-08-10T08:16:08-04:00","id":"d264671f-8ef1-4dc5-bd3f-84794ff8e991","issued":"2018-08-10T08:16:08.720-04:00","meta":{"lastUpdated":"2019-04-09T12:03:20.922511+00:00","versionId":"MTU1NDgxMTQwMDkyMjUxMTAwMA"},"resourceType":"Observation","status":"final","subject":{"reference":"Patient/0b1c606e-6cbd-4103-b535-6c3d7e9940b4"},"valueQuantity":{"code":"g/dL","system":"http://unitsofmeasure.org","unit":"g/dL","value":35.75994118613387}}},{"resource":{"category":[{"coding":[{"code":"laboratory","display":"laboratory","system":"http://hl7.org/fhir/observation-category"}]}],"code":{"coding":[{"code":"718-7","display":"Hemoglobin [Mass/volume] in Blood","system":"http://loinc.org"}],"text":"Hemoglobin [Mass/volume] in Blood"},"context":{"reference":"Encounter/2f58463c-ed28-4010-ae27-cc4e7e984f3c"},"effectiveDateTime":"2018-08-10T08:16:08-04:00","id":"d53b6cf1-c843-43d0-abe7-b6dde82841df","issued":"2018-08-10T08:16:08.720-04:00","meta":{"lastUpdated":"2019-04-09T12:03:20.919568+00:00","versionId":"MTU1NDgxMTQwMDkxOTU2ODAwMA"},"resourceType":"Observation","status":"final","subject":{"reference":"Patient/0b1c606e-6cbd-4103-b535-6c3d7e9940b4"},"valueQuantity":{"code":"g/dL","system":"http://unitsofmeasure.org","unit":"g/dL","value":12.38908702955921}}},{"resource":{"category":[{"coding":[{"code":"vital-signs","display":"vital-signs","system":"http://hl7.org/fhir/observation-category"}]}],"code":{"coding":[{"code":"39156-5","display":"Body Mass Index","system":"http://loinc.org"}],"text":"Body Mass Index"},"context":{"reference":"Encounter/a8cf0bab-30c2-43ed-8eb0-52313d43a68a"},"effectiveDateTime":"2013-07-05T08:16:08-04:00","id":"df01da4c-f1f3-4cae-a04c-6cdf704e0662","issued":"2013-07-05T08:16:08.720-04:00","meta":{"lastUpdated":"2019-04-09T12:03:19.707095+00:00","versionId":"MTU1NDgxMTM5OTcwNzA5NTAwMA"},"resourceType":"Observation","status":"final","subject":{"reference":"Patient/0b1c606e-6cbd-4103-b535-6c3d7e9940b4"},"valueQuantity":{"code":"kg/m2","system":"http://unitsofmeasure.org","unit":"kg/m2","value":19.18463007700261}}},{"resource":{"category":[{"coding":[{"code":"vital-signs","display":"vital-signs","system":"http://hl7.org/fhir/observation-category"}]}],"code":{"coding":[{"code":"39156-5","display":"Body Mass Index","system":"http://loinc.org"}],"text":"Body Mass Index"},"context":{"reference":"Encounter/951bece7-8193-49d6-82c5-77f8958fa9ef"},"effectiveDateTime":"2014-08-01T08:16:08-04:00","id":"e0be325f-eb78-46de-adec-800ce1651983","issued":"2014-08-01T08:16:08.720-04:00","meta":{"lastUpdated":"2019-04-09T12:03:19.733106+00:00","versionId":"MTU1NDgxMTM5OTczMzEwNjAwMA"},"resourceType":"Observation","status":"final","subject":{"reference":"Patient/0b1c606e-6cbd-4103-b535-6c3d7e9940b4"},"valueQuantity":{"code":"kg/m2","system":"http://unitsofmeasure.org","unit":"kg/m2","value":19.843242103819048}}},{"resource":{"category":[{"coding":[{"code":"vital-signs","display":"vital-signs","system":"http://hl7.org/fhir/observation-category"}]}],"code":{"coding":[{"code":"72514-3","display":"Pain severity - 0-10 verbal numeric rating [Score] - Reported","system":"http://loinc.org"}],"text":"Pain severity - 0-10 verbal numeric rating [Score] - Reported"},"context":{"reference":"Encounter/0777984e-b0b6-44cc-8754-2b31d71fbcc4"},"effectiveDateTime":"2013-07-26T08:16:08-04:00","id":"e53a6d3e-26dd-487c-804d-a8785c2c15b8","issued":"2013-07-26T08:16:08.720-04:00","meta":{"lastUpdated":"2019-04-09T12:03:19.703187+00:00","versionId":"MTU1NDgxMTM5OTcwMzE4NzAwMA"},"resourceType":"Observation","status":"final","subject":{"reference":"Patient/0b1c606e-6cbd-4103-b535-6c3d7e9940b4"},"valueQuantity":{"code":"{score}","system":"http://unitsofmeasure.org","unit":"{score}","value":0.7099146612621596}}},{"resource":{"category":[{"coding":[{"code":"survey","display":"survey","system":"http://hl7.org/fhir/observation-category"}]}],"code":{"coding":[{"code":"72166-2","display":"Tobacco smoking status NHIS","system":"http://loinc.org"}],"text":"Tobacco smoking status NHIS"},"context":{"reference":"Encounter/3038d719-51c2-4efa-aa11-4736114aa4b4"},"effectiveDateTime":"2009-06-12T08:16:08-04:00","id":"ead44f5a-493b-4402-b58b-8de0df712324","issued":"2009-06-12T08:16:08.720-04:00","meta":{"lastUpdated":"2019-04-09T12:03:18.655279+00:00","versionId":"MTU1NDgxMTM5ODY1NTI3OTAwMA"},"resourceType":"Observation","status":"final","subject":{"reference":"Patient/0b1c606e-6cbd-4103-b535-6c3d7e9940b4"},"valueCodeableConcept":{"coding":[{"code":"266919005","display":"Never smoker","system":"http://snomed.info/sct"}],"text":"Never smoker"}}},{"resource":{"category":[{"coding":[{"code":"vital-signs","display":"vital-signs","system":"http://hl7.org/fhir/observation-category"}]}],"code":{"coding":[{"code":"72514-3","display":"Pain severity - 0-10 verbal numeric rating [Score] - Reported","system":"http://loinc.org"}],"text":"Pain severity - 0-10 verbal numeric rating [Score] - Reported"},"context":{"reference":"Encounter/a8cf0bab-30c2-43ed-8eb0-52313d43a68a"},"effectiveDateTime":"2013-07-05T08:16:08-04:00","id":"ec75ee00-49f0-4a9f-8fef-f67a90867de6","issued":"2013-07-05T08:16:08.720-04:00","meta":{"lastUpdated":"2019-04-09T12:03:19.709461+00:00","versionId":"MTU1NDgxMTM5OTcwOTQ2MTAwMA"},"resourceType":"Observation","status":"final","subject":{"reference":"Patient/0b1c606e-6cbd-4103-b535-6c3d7e9940b4"},"valueQuantity":{"code":"{score}","system":"http://unitsofmeasure.org","unit":"{score}","value":0.33783194471427347}}},{"resource":{"category":[{"coding":[{"code":"vital-signs","display":"vital-signs","system":"http://hl7.org/fhir/observation-category"}]}],"code":{"coding":[{"code":"55284-4","display":"Blood Pressure","system":"http://loinc.org"}],"text":"Blood Pressure"},"component":[{"code":{"coding":[{"code":"8462-4","display":"Diastolic Blood Pressure","system":"http://loinc.org"}],"text":"Diastolic Blood Pressure"},"valueQuantity":{"code":"mmHg","system":"http://unitsofmeasure.org","unit":"mmHg","value":87.21444547643276}},{"code":{"coding":[{"code":"8480-6","display":"Systolic Blood Pressure","system":"http://loinc.org"}],"text":"Systolic Blood Pressure"},"valueQuantity":{"code":"mmHg","system":"http://unitsofmeasure.org","unit":"mmHg","value":100.91579406369615}}],"context":{"reference":"Encounter/8700ceee-f45c-42e3-bf97-99a747b92091"},"effectiveDateTime":"2015-08-07T08:16:08-04:00","id":"f048e92e-0d8b-401a-97ca-f6b86478c553","issued":"2015-08-07T08:16:08.720-04:00","meta":{"lastUpdated":"2019-04-09T12:03:19.733109+00:00","versionId":"MTU1NDgxMTM5OTczMzEwOTAwMA"},"resourceType":"Observation","status":"final","subject":{"reference":"Patient/0b1c606e-6cbd-4103-b535-6c3d7e9940b4"}}},{"resource":{"category":[{"coding":[{"code":"vital-signs","display":"vital-signs","system":"http://hl7.org/fhir/observation-category"}]}],"code":{"coding":[{"code":"72514-3","display":"Pain severity - 0-10 verbal numeric rating [Score] - Reported","system":"http://loinc.org"}],"text":"Pain severity - 0-10 verbal numeric rating [Score] - Reported"},"context":{"reference":"Encounter/951bece7-8193-49d6-82c5-77f8958fa9ef"},"effectiveDateTime":"2014-08-01T08:16:08-04:00","id":"f33f3aeb-7d9d-4e0d-be2c-9f7234b31e9a","issued":"2014-08-01T08:16:08.720-04:00","meta":{"lastUpdated":"2019-04-09T12:03:19.727073+00:00","versionId":"MTU1NDgxMTM5OTcyNzA3MzAwMA"},"resourceType":"Observation","status":"final","subject":{"reference":"Patient/0b1c606e-6cbd-4103-b535-6c3d7e9940b4"},"valueQuantity":{"code":"{score}","system":"http://unitsofmeasure.org","unit":"{score}","value":0.33699484367996435}}},{"resource":{"category":[{"coding":[{"code":"vital-signs","display":"vital-signs","system":"http://hl7.org/fhir/observation-category"}]}],"code":{"coding":[{"code":"8302-2","display":"Body Height","system":"http://loinc.org"}],"text":"Body Height"},"context":{"reference":"Encounter/3038d719-51c2-4efa-aa11-4736114aa4b4"},"effectiveDateTime":"2009-06-12T08:16:08-04:00","id":"f60950ed-97e7-4e9c-8838-fca196dcb776","issued":"2009-06-12T08:16:08.720-04:00","meta":{"lastUpdated":"2019-04-09T12:03:18.654571+00:00","versionId":"MTU1NDgxMTM5ODY1NDU3MTAwMA"},"resourceType":"Observation","status":"final","subject":{"reference":"Patient/0b1c606e-6cbd-4103-b535-6c3d7e9940b4"},"valueQuantity":{"code":"cm","system":"http://unitsofmeasure.org","unit":"cm","value":151.27720428144428}}}],"link":[{"url":"https://syntheticmass.mitre.org/v1/fhir/Patient/0b1c606e-6cbd-4103-b535-6c3d7e9940b4/$everything?_count=100&page_token=CoIBcHJvamVjdHMvc3ludGhlYS9sb2NhdGlvbnMvdXMtY2VudHJhbDEvZGF0YXNldHMvMjAxOTAyL2ZoaXJTdG9yZXMvc3ludGhldGljLW1hc3MvZmhpci9QYXRpZW50LzBiMWM2MDZlLTZjYmQtNDEwMy1iNTM1LTZjM2Q3ZTk5NDBiNCBk","relation":"previous"},{"url":"https://syntheticmass.mitre.org/v1/fhir/Patient/0b1c606e-6cbd-4103-b535-6c3d7e9940b4/$everything?_count=100&page_token=CoIBcHJvamVjdHMvc3ludGhlYS9sb2NhdGlvbnMvdXMtY2VudHJhbDEvZGF0YXNldHMvMjAxOTAyL2ZoaXJTdG9yZXMvc3ludGhldGljLW1hc3MvZmhpci9QYXRpZW50LzBiMWM2MDZlLTZjYmQtNDEwMy1iNTM1LTZjM2Q3ZTk5NDBiNCCsAg%3D%3D","relation":"next"}],"total":360}
